Time (s),Gyroscope X (deg/s),Gyroscope Y (deg/s),Gyroscope Z (deg/s),Accelerometer X (g),Accelerometer Y (g),Accelerometer Z (g),Magnetometer X (uT),Magnetometer Y (uT),Magnetometer Z (uT)
12.899619102,2.588667,0.2510241,-0.5440385,0.1501913,-0.09320514,0.9898291,1.287188,-19.87112,-55.11243
12.909477711,1.656929,0.310533,-0.2988266,0.1507968,-0.0980499,0.9940923,1.287188,-19.87112,-55.11243
12.919336319,1.284233,0.5485688,-0.4214326,0.1444003,-0.09762856,0.991791,1.285639,-19.50208,-55.05218
12.929193974,1.408465,0.310533,-0.2375236,0.1454009,-0.1000547,0.991277,1.285639,-19.50208,-55.05218
12.939052582,1.284233,0.5485688,-0.1149176,0.1523551,-0.1024051,0.9969085,1.285639,-19.50208,-55.05218
12.94891119,1.470581,0.727095499999998,-0.3601296,0.1499386,-0.1048595,0.9969222,1.285639,-19.50208,-55.05218
12.958769321,1.594813,0.667586600000001,-0.2375236,0.1454724,-0.1044284,0.9926767,1.285639,-19.50208,-55.05218
12.96862793,1.719045,0.667586600000001,-0.1762206,0.1478896,-0.1058796,0.9892756,2.039875,-20.24166,-54.66442
12.978486538,1.656929,1.02464,-0.05361458,0.145346,-0.09323519,0.9932522,2.039875,-20.24166,-54.66442
12.988345146,1.222117,1.262676,-0.4214326,0.1393923,-0.09331097,0.9871068,2.039875,-20.24166,-54.66442
12.998202801,1.160001,1.203167,-0.3601296,0.1390246,-0.1035334,0.9870258,2.039875,-20.24166,-54.66442
13.008061409,1.222117,1.084149,-0.3601296,0.14292,-0.0976452,0.9908535,2.039875,-20.24166,-54.66442
13.017920017,1.594813,1.084149,-0.2375236,0.1409376,-0.09766984,0.9889649,2.406366,-19.51592,-55.12199
13.027778149,0.725189899999998,0.9056224,-0.2988266,0.1423189,-0.08986981,0.9894902,2.406366,-19.51592,-55.12199
13.037636757,-0.0823169599999999,0.846113400000001,0.1915974,0.1399392,-0.09817245,0.987058,2.406366,-19.51592,-55.12199
13.047495365,-0.3928965,0.727095499999998,0.4368094,0.1413507,-0.0962225,0.9846584,2.406366,-19.51592,-55.12199
13.059817791,-0.703476100000001,0.965131299999997,0.743324399999998,0.1403733,-0.09574268,0.9851555,2.406366,-19.51592,-55.12199
13.069676399,-0.641360199999998,0.667586600000001,0.5594154,0.1375197,-0.1025806,0.9851385,1.284428,-19.87647,-55.49651
13.079535007,0.04191487,0.727095499999998,0.3755064,0.1370768,-0.1064775,0.9851119,1.284428,-19.87647,-55.49651
13.089393139,0.600958099999998,0.608077699999999,0.4368094,0.1373584,-0.09725609,0.9779977,1.284428,-19.87647,-55.49651
13.099251747,0.5388422,0.370042,0.3142034,0.1398951,-0.09720857,0.9846708,1.284428,-19.87647,-55.49651
13.109110355,0.2282626,0.370042,0.0689914200000002,0.1379394,-0.09673736,0.9851818,1.284428,-19.87647,-55.49651
13.118968964,0.3524944,0.4890598,-0.05361458,0.1394283,-0.1040417,0.980307,2.037867,-19.87352,-54.66819
13.128826618,0.4146104,0.4890598,-0.3601296,0.1336359,-0.1050479,0.985173,2.037867,-19.87352,-54.66819
13.138685226,0.787305800000002,0.370042,-0.05361458,0.1353652,-0.09581915,0.9766006,2.037867,-19.87352,-54.66819
13.148543835,0.5388422,0.4890598,-0.2375236,0.1403574,-0.09330608,0.9861346,2.037867,-19.87352,-54.66819
13.158401966,-0.02020105,0.4890598,-0.4827355,0.1374351,-0.09821068,0.9827806,2.037867,-19.87352,-54.66819
13.168260574,0.2282626,0.310533,-0.2988266,0.1336424,-0.100652,0.9895228,1.660915,-19.87544,-55.11436
13.178119183,0.663074000000001,0.1320062,-0.3601296,0.1365169,-0.1060138,0.9803318,1.660915,-19.87544,-55.11436
13.187976837,1.408465,0.01298836,-0.2988266,0.1413716,-0.1040282,0.979321,1.660915,-19.87544,-55.11436
13.197835445,1.532697,-0.04652058,-0.05361458,0.1383482,-0.09382658,0.9818461,1.660915,-19.87544,-55.11436
13.207694054,0.973653600000002,-0.2845563,-0.05361458,0.1365018,-0.09869473,0.985665,1.660915,-19.87544,-55.11436
13.217552185,0.973653600000002,-0.2845563,-0.1762206,0.1343921,-0.09680277,0.976127,1.284428,-19.87647,-55.49651
13.229875565,1.284233,-0.2845563,-0.4214326,0.1433931,-0.09959834,0.9879552,1.284428,-19.87647,-55.49651
13.239734173,1.656929,-0.2250474,-0.3601296,0.1423245,-0.09914451,0.9817446,1.284428,-19.87647,-55.49651
13.249591827,2.340204,-0.2845563,-0.5440385,0.1405959,-0.1078849,0.9908003,1.284428,-19.87647,-55.49651
13.259450436,2.899247,-0.4630831,-0.2988266,0.1405193,-0.1025362,0.9898881,1.284428,-19.87647,-55.49651
13.269309044,2.775015,-0.2845563,-0.1149176,0.1386137,-0.09912138,0.9966528,1.662924,-20.24359,-55.11059
13.279167652,2.464436,-0.2250474,0.007688423,0.1419997,-0.09812552,0.9946963,1.662924,-20.24359,-55.11059
13.289025784,2.029624,-0.1060295,0.1915974,0.1361618,-0.09475071,1.000079,1.662924,-20.24359,-55.11059
13.298884392,1.594813,0.1915152,0.5594154,0.1375395,-0.0849988,1.002059,1.662924,-20.24359,-55.11059
13.308743,0.725189899999998,0.1915152,0.743324399999998,0.1326753,-0.08894004,1.000657,1.662924,-20.24359,-55.11059
13.318601132,0.5388422,0.1915152,0.8659304,0.136075,-0.09184609,0.9962713,1.66493,-20.61173,-55.10681
13.32845974,0.3524944,0.2510241,0.927233400000001,0.1352111,-0.09377502,1.002976,1.66493,-20.61173,-55.10681
13.338318348,0.725189899999998,0.4890598,0.620718400000002,0.1351518,-0.08988611,1.002051,1.66493,-20.61173,-55.10681
13.348176003,0.663074000000001,0.4295509,0.4981124,0.1308845,-0.09574522,1.006855,1.66493,-20.61173,-55.10681
13.358034611,0.787305800000002,0.667586600000001,0.3142034,0.1375041,-0.08256777,1.0016,1.66493,-20.61173,-55.10681
13.367893219,0.2903785,0.846113400000001,0.4368094,0.1365592,-0.08207866,1.004493,2.413605,-20.24598,-54.66635
13.37775135,-0.1444329,0.9056224,0.4981124,0.1370055,-0.08452766,0.9991949,2.413605,-20.24598,-54.66635
13.387609959,-0.5171283,0.846113400000001,0.3142034,0.1355403,-0.09186339,0.9929243,2.413605,-20.24598,-54.66635
13.397468567,-0.02020105,0.786604499999998,0.1915974,0.1354629,-0.09139724,0.9876581,2.413605,-20.24598,-54.66635
13.40979147,0.3524944,0.965131299999997,0.1915974,0.1433282,-0.0908288,0.9909053,2.413605,-20.24598,-54.66635
13.419649601,0.600958099999998,1.02464,0.1915974,0.1374243,-0.09235504,0.9871429,2.041882,-20.60981,-54.66065
13.429508209,0.5388422,1.02464,0.1302944,0.1335341,-0.09043016,0.990569,2.041882,-20.60981,-54.66065
13.439366818,0.04191487,1.203167,-0.1149176,0.1251198,-0.08320837,0.9897915,2.041882,-20.60981,-54.66065
13.449224949,-0.02020105,1.262676,-0.05361458,0.1266269,-0.08269589,0.9931287,2.041882,-20.60981,-54.66065
13.459083557,-0.4550124,1.381694,-0.1149176,0.1412229,-0.08161216,0.9881378,2.041882,-20.60981,-54.66065
13.468942165,-0.5171283,1.322185,-0.1762206,0.1440785,-0.09088517,0.9741221,2.0359,-20.6214,-55.49283
13.47879982,-0.3307806,1.500712,-0.4214326,0.1377529,-0.08653779,0.9804786,2.0359,-20.6214,-55.49283
13.488658428,0.2282626,1.500712,-0.6053416,0.1334054,-0.08509637,0.9858239,2.0359,-20.6214,-55.49283
13.498517037,0.725189899999998,1.381694,-0.789250600000002,0.1295678,-0.09145632,0.9858249,2.0359,-20.6214,-55.49283
13.508375168,1.222117,1.143658,-0.727947499999999,0.1291004,-0.09438381,0.9848485,2.0359,-20.6214,-55.49283
13.518233776,2.153856,0.727095499999998,-0.850553500000001,0.1285007,-0.09002562,0.980581,2.41239,-20.62037,-55.11068
13.528092384,2.961363,0.965131299999997,-1.095766,0.1344955,-0.0972615,0.9833096,2.41239,-20.62037,-55.11068
13.537950993,3.209827,0.667586600000001,-1.157069,0.1333923,-0.08949414,0.9809949,2.41239,-20.62037,-55.11068
13.547808647,3.706754,0.786604499999998,-1.218372,0.1444852,-0.08065158,0.9770778,2.41239,-20.62037,-55.11068
13.557667255,4.203681,0.667586600000001,-1.279675,0.1494731,-0.08106912,0.9837121,2.41239,-20.62037,-55.11068
13.567525864,4.141565,0.667586600000001,-1.463584,0.139721,-0.07870561,0.9881838,2.039875,-20.24166,-54.66442
13.579848766,5.073304,0.608077699999999,-1.524887,0.1422713,-0.07816593,0.9962984,2.039875,-20.24166,-54.66442
13.589707374,6.19139099999999,0.667586600000001,-2.567038,0.1459541,-0.07087369,0.9857651,2.039875,-20.24166,-54.66442
13.599565983,6.68831799999999,1.143658,-3.057462,0.1491613,-0.07565236,1.001493,2.039875,-20.24166,-54.66442
13.609423637,7.37159299999998,1.500712,-3.363976,0.1437445,-0.06985149,1.004015,2.039875,-20.24166,-54.66442
13.619282246,7.930636,1.798256,-3.793097,0.1367396,-0.06653912,0.9955169,2.415611,-20.61413,-54.66258
13.629140854,8.36544800000002,2.095801,-4.283521,0.1449834,-0.05281576,1.002224,2.415611,-20.61413,-54.66258
13.638999462,7.930636,2.631382,-4.651339,0.1410201,-0.04749412,1.003284,2.415611,-20.61413,-54.66258
13.648857593,7.37159299999998,2.69089,-4.896551,0.1316631,-0.04710604,0.9991077,2.415611,-20.61413,-54.66258
13.658716202,6.75043299999998,2.809908,-5.141763,0.1254508,-0.05834958,1.00006,2.415611,-20.61413,-54.66258
13.66857481,6.99889700000002,2.809908,-5.325672,0.1235356,-0.07007253,0.9928001,3.165077,-20.99091,-54.66267
13.678432465,8.551796,2.928926,-5.570884,0.1178639,-0.07299723,1.004836,3.165077,-20.99091,-54.66267
13.688291073,8.986607,2.988435,-5.81609599999999,0.1169101,-0.09155153,0.9903173,3.165077,-20.99091,-54.66267
13.698149681,9.73199700000002,2.988435,-5.325672,0.1103661,-0.08531353,0.9823168,3.165077,-20.99091,-54.66267
13.708007812,9.794114,2.631382,-5.448278,0.1122082,-0.07898194,0.9794688,3.165077,-20.99091,-54.66267
13.717866421,8.676027,1.976783,-4.957854,0.11414,-0.07799527,0.9784912,2.797331,-20.97501,-53.82856
13.727725029,7.55793999999999,1.917274,-4.406127,0.117914,-0.06628295,0.9785362,2.797331,-20.97501,-53.82856
13.73758316,5.570231,1.441203,-3.8544,0.1185319,-0.06721839,0.9871451,2.797331,-20.97501,-53.82856
13.747441769,3.147711,0.9056224,-3.547885,0.1189335,-0.0647979,0.982847,2.797331,-20.97501,-53.82856
13.759764671,0.5388422,0.07249729,-2.996159,0.116556,-0.06724118,0.9857355,2.797331,-20.97501,-53.82856
13.76962328,-1.014056,-0.4035742,-2.383129,0.1115918,-0.07706963,0.9718265,2.791349,-20.98659,-54.66074
13.779481411,-1.510983,-0.5225921,-2.015311,0.1098625,-0.08629841,0.9803989,2.791349,-20.98659,-54.66074
13.789340019,-1.386751,-1.117681,-1.58619,0.111868,-0.08822009,0.9822708,2.791349,-20.98659,-54.66074
13.799198627,-0.5171283,-1.17719,-1.58619,0.1179674,-0.0784734,0.9717238,2.791349,-20.98659,-54.66074
13.809056759,-0.3307806,-1.593753,-1.463584,0.1170146,-0.07017491,0.9809123,2.791349,-20.98659,-54.66074
13.81891489,-0.703476100000001,-1.653262,-1.402281,0.1199571,-0.06917036,0.9823163,3.169092,-21.72721,-54.65513
13.828773498,-1.076172,-1.77228,-0.973159599999999,0.1213968,-0.0745358,0.9755418,3.169092,-21.72721,-54.65513
13.83863163,-0.765591999999998,-1.891297,-0.973159599999999,0.1256737,-0.06232703,0.9770215,3.169092,-21.72721,-54.65513
13.848490238,-0.4550124,-1.950806,-1.340978,0.1283014,-0.06664758,0.9865315,3.169092,-21.72721,-54.65513
13.858348846,-0.3307806,-2.129333,-1.157069,0.1273867,-0.0764026,0.9826286,3.169092,-21.72721,-54.65513
13.868207455,0.04191487,-2.129333,-1.095766,0.1307612,-0.07443359,0.9806804,2.423643,-22.08672,-54.6475
13.878065586,0.5388422,-1.891297,-0.789250600000002,0.1395809,-0.06361054,0.9911884,2.423643,-22.08672,-54.6475
13.887924194,0.3524944,-1.950806,-0.850553500000001,0.1395267,-0.06069664,0.9897761,2.423643,-22.08672,-54.6475
13.897782803,-0.2686647,-2.30786,-0.911856500000002,0.1365559,-0.06317392,0.9850056,2.423643,-22.08672,-54.6475
13.907640457,-0.951939799999999,-2.426878,-0.4827355,0.1390924,-0.06752047,0.9878079,2.423643,-22.08672,-54.6475
13.917499065,-1.138287,-2.426878,-0.05361458,0.1425796,-0.07284269,0.9877133,2.795364,-21.72289,-54.6532
13.929822445,-0.703476100000001,-2.188842,-0.2988266,0.1406205,-0.06602554,0.9935491,2.795364,-21.72289,-54.6532
13.939680576,-1.014056,-2.188842,-0.2375236,0.1422216,-0.06792737,1.001657,2.795364,-21.72289,-54.6532
13.949539185,-1.200403,-2.30786,-0.3601296,0.1455091,-0.07184186,0.9881592,2.795364,-21.72289,-54.6532
13.959397793,-1.200403,-2.248351,-0.05361458,0.1416174,-0.07089385,0.9906186,2.795364,-21.72289,-54.6532
13.969256401,-1.200403,-2.248351,-0.2375236,0.1391945,-0.06456201,0.9978945,2.045898,-21.34611,-54.65311
13.979114056,-1.635215,-1.950806,-0.5440385,0.1451756,-0.06789598,1.003052,2.045898,-21.34611,-54.65311
13.988972664,-1.945794,-1.891297,-0.5440385,0.1479438,-0.06596468,0.9924869,2.045898,-21.34611,-54.65311
13.998831272,-2.256374,-1.653262,-0.4214326,0.1499912,-0.07031553,0.9952962,2.045898,-21.34611,-54.65311
14.008689404,-2.380606,-1.415226,0.007688423,0.1462348,-0.07469946,1.00298,2.045898,-21.34611,-54.65311
14.018548012,-2.31849,-1.236699,-0.2375236,0.1443152,-0.07617085,1.004432,2.419628,-21.35043,-54.65504
14.02840662,-2.380606,-0.701118900000002,0.4368094,0.1443998,-0.08493482,1.00292,2.419628,-21.35043,-54.65504
14.038264275,-2.566953,-0.641609900000002,0.620718400000002,0.1513107,-0.08583286,1.006647,2.419628,-21.35043,-54.65504
14.048122883,-2.753301,-0.4630831,1.601566,0.1474759,-0.09902719,1.00084,2.419628,-21.35043,-54.65504
14.057981491,-2.939649,-0.641609900000002,2.275899,0.1446266,-0.1073286,0.9998522,2.419628,-21.35043,-54.65504
14.067840099,-2.194258,-0.820136700000001,2.275899,0.1385406,-0.1001187,0.9904159,2.794109,-20.98125,-54.27666
14.077698231,-2.194258,-0.879645599999998,1.662869,0.1365688,-0.07195833,0.9782225,2.794109,-20.98125,-54.27666
14.087556839,-3.622924,-1.950806,1.47896,0.1315587,-0.06031792,0.9798297,2.794109,-20.98125,-54.27666
14.097415447,-5.175822,-2.069824,1.233748,0.1333128,-0.0388764,0.9838192,2.794109,-20.98125,-54.27666
14.109737873,-6.91506799999999,-1.950806,0.3142034,0.1415199,-0.01491076,0.9968429,2.045898,-21.34611,-54.65311
14.119596481,-8.21950099999998,-1.77228,-0.1762206,0.1389612,-0.03777606,1.004354,2.045898,-21.34611,-54.65311
14.12945509,-8.03315400000002,-1.415226,-0.1762206,0.1297812,-0.04954315,1.002468,2.045898,-21.34611,-54.65311
14.139313221,-6.10756099999998,-1.117681,-0.3601296,0.1235443,-0.06860537,0.9947292,2.045898,-21.34611,-54.65311
14.149171829,-3.933504,-0.879645599999998,0.0689914200000002,0.1260223,-0.06857457,0.9970901,2.045898,-21.34611,-54.65311
14.159030438,-3.063881,-1.117681,0.4981124,0.1319751,-0.07777533,0.9950109,2.045898,-21.34611,-54.65311
14.168889046,-2.132142,-0.760627799999999,0.5594154,0.139601,-0.07190465,0.9853677,1.295219,-21.34371,-55.09734
14.1787467,-1.697331,-0.4035742,-0.2375236,0.1409245,-0.05484479,0.9898056,1.295219,-21.34371,-55.09734
14.188605309,-2.939649,-0.5225921,-0.727947499999999,0.1379938,-0.04364032,1.000005,1.295219,-21.34371,-55.09734
14.198463917,-4.989474,-0.3440652,-0.911856500000002,0.1362534,-0.02176092,0.9992561,1.295219,-21.34371,-55.09734
14.208322048,-7.34987899999998,-0.582100999999999,-1.58619,0.1292934,-0.01452993,0.9974996,1.295219,-21.34371,-55.09734
14.218180656,-10.64202,-1.058172,-0.973159599999999,0.1309917,-0.04276827,0.9895699,2.044641,-20.60447,-54.27657
14.228039265,-13.12666,-1.891297,0.1915974,0.1394482,-0.08268921,0.9646733,2.044641,-20.60447,-54.27657
14.237897873,-14.80379,-2.545896,2.275899,0.1527967,-0.1385431,0.9616157,2.044641,-20.60447,-54.27657
14.247756004,-13.6857,-2.188842,2.398505,0.1546081,-0.1521024,0.974893,2.044641,-20.60447,-54.27657
14.257614613,-10.20721,-1.712771,0.8659304,0.1453225,-0.1132592,0.9739156,2.044641,-20.60447,-54.27657
14.267473221,-9.33758799999999,-1.415226,-0.3601296,0.156506,-0.100485,0.9800936,1.293962,-20.60207,-54.72079
14.279795647,-11.01472,-1.117681,-0.1762206,0.1491783,-0.09908239,0.9821267,1.293962,-20.60207,-54.72079
14.289654255,-11.69799,-1.355717,-0.5440385,0.1500501,-0.1005688,0.9729968,1.293962,-20.60207,-54.72079
14.299512863,-12.07069,-1.534244,-0.4827355,0.1579455,-0.1146386,0.9655776,1.293962,-20.60207,-54.72079
14.309370518,-12.00857,-1.355717,-0.4827355,0.1531076,-0.1009961,0.9815753,2.036654,-20.2479,-55.11252
14.319229126,-11.69799,-0.998663500000001,-0.6666446,0.1541034,-0.08487102,0.9970316,2.036654,-20.2479,-55.11252
14.329087734,-11.82222,-0.641609900000002,-1.034463,0.1481252,-0.07958331,0.9938071,2.036654,-20.2479,-55.11252
14.338946343,-12.44338,-0.582100999999999,-1.218372,0.1466984,-0.08300227,0.9937986,2.036654,-20.2479,-55.11252
14.348804474,-11.88434,-0.2845563,-1.831402,0.1439228,-0.09421197,0.9956601,2.036654,-20.2479,-55.11252
14.358663082,-11.3253,0.07249729,-2.260523,0.1484445,-0.1053683,0.9945433,2.036654,-20.2479,-55.11252
14.36852169,-10.89049,-0.1060295,-1.770099,0.1400715,-0.1010641,0.9942197,2.035858,-19.50537,-54.67196
14.378379822,-10.89049,-0.5225921,-1.892705,0.1438858,-0.1015459,0.9864941,2.035858,-19.50537,-54.67196
14.38823843,-11.76011,-0.5225921,-1.831402,0.148477,-0.1141471,0.9891975,2.035858,-19.50537,-54.67196
14.398097038,-11.94646,-0.820136700000001,-1.708796,0.1446791,-0.1244015,0.9886859,2.035858,-19.50537,-54.67196
14.407954693,-12.44338,-0.820136700000001,-0.789250600000002,0.147688,-0.1355837,0.9842359,2.035858,-19.50537,-54.67196
14.417813301,-11.44953,-1.236699,-0.4214326,0.149593,-0.1350929,0.9808584,2.403606,-19.52127,-55.50607
14.427671909,-10.82837,-1.355717,-0.4827355,0.1506001,-0.1375172,0.9808236,2.403606,-19.52127,-55.50607
14.437530518,-9.399704,-1.17719,-0.850553500000001,0.1555532,-0.1394093,0.9836122,2.403606,-19.52127,-55.50607
14.447388649,-8.09526999999998,-0.760627799999999,-0.911856500000002,0.1570921,-0.139376,0.9888618,2.403606,-19.52127,-55.50607
14.459711552,-7.16353100000001,-0.641609900000002,-1.524887,0.1513179,-0.1325654,1.00194,2.018959,-18.11196,-55.96669
14.46957016,-5.85909699999999,-0.3440652,-1.708796,0.1453417,-0.1346005,0.992424,2.018959,-18.11196,-55.96669
14.479428291,-4.927359,0.1915152,-1.892705,0.1472939,-0.1243317,1.001108,2.018959,-18.11196,-55.96669
14.4892869,-4.554663,0.5485688,-2.015311,0.1390004,-0.1190284,1.007501,2.018959,-18.11196,-55.96669
14.499145508,-6.04544500000002,0.846113400000001,-1.157069,0.1385469,-0.1126756,1.015707,2.018959,-18.11196,-55.96669
14.509004116,-7.72257499999999,1.441203,-0.2988266,0.1502497,-0.1013532,1.022824,1.647989,-18.10229,-55.58067
14.518862248,-9.399704,1.917274,0.4368094,0.1526908,-0.1042623,1.01989,1.647989,-18.10229,-55.58067
14.528720856,-10.57991,2.214819,0.804627399999999,0.1464207,-0.1150341,1.017013,1.647989,-18.10229,-55.58067
14.538579464,-10.02086,2.631382,0.804627399999999,0.1584863,-0.1353429,1.022899,1.647989,-18.10229,-55.58067
14.548437119,-8.09526999999998,3.404998,1.417657,0.1568052,-0.1557871,1.025146,1.647989,-18.10229,-55.58067
14.558295727,-7.41199499999999,4.059596,0.743324399999998,0.1638058,-0.1620301,1.030744,1.644436,-17.36511,-55.5242
14.568154335,-3.250229,4.95223,-0.789250600000002,0.1559376,-0.1645523,1.025564,1.644436,-17.36511,-55.5242
14.578012943,1.781161,6.02339100000001,-2.321826,0.148458,-0.1646577,1.015127,1.644436,-17.36511,-55.5242
14.587871075,4.390029,5.78535500000003,-3.057462,0.1405435,-0.1720754,1.002239,1.644436,-17.36511,-55.5242
14.597729683,5.694463,5.78535500000003,-2.996159,0.1413269,-0.1804222,0.9805937,1.644436,-17.36511,-55.5242
14.607588291,9.11083900000002,5.90437299999999,-3.180068,0.1348841,-0.1848963,0.9705846,1.644436,-17.36511,-55.5242
14.617445946,15.57089,6.26142599999997,-4.406127,0.1229447,-0.1933569,0.9486401,2.391434,-17.37463,-55.59207
14.629769325,26.25483,6.61847999999998,-5.69349,0.1193623,-0.2168672,0.9163864,2.391434,-17.37463,-55.59207
14.639627933,36.50396,7.68964099999998,-7.164762,0.1173727,-0.2129881,0.9174059,2.391434,-17.37463,-55.59207
14.649486065,47.93329,8.10620399999998,-8.57473199999998,0.1146105,-0.2072412,0.8992842,2.391434,-17.37463,-55.59207
14.659344673,60.72916,8.93932899999999,-10.35252,0.124229,-0.1901137,0.9021669,2.394655,-17.3684,-55.14398
14.669203281,72.5311900000002,9.83196299999999,-12.62073,0.1266037,-0.1808361,0.9050865,2.394655,-17.3684,-55.14398
14.67906189,83.5257000000001,11.67674,-15.62458,0.1267376,-0.1783568,0.9170855,2.394655,-17.3684,-55.14398
14.688919544,95.57619,12.80741,-17.40236,0.1033646,-0.1405874,0.9225293,2.394655,-17.3684,-55.14398
14.698778152,105.8253,13.52152,-19.60927,0.1037794,-0.08654629,0.9287299,2.394655,-17.3684,-55.14398
14.708636761,112.9687,13.22397,-22.49051,0.09936815,-0.0413178,0.9320497,2.784071,-19.14051,-54.29551
14.718494892,120.2362,13.99759,-24.08439,0.1084299,0.0008207962,0.9878633,2.784071,-19.14051,-54.29551
14.7283535,125.5161,15.36629,-26.47521,0.09538139,0.08250105,0.9997601,2.784071,-19.14051,-54.29551
14.738212109,129.0567,14.17612,-29.54036,0.08285309,0.1197659,0.9748557,2.784071,-19.14051,-54.29551
14.748070717,129.4294,15.84237,-29.60166,0.09385522,0.1555702,1.023879,2.784071,-19.14051,-54.29551
14.757928371,126.3236,17.3896,-30.21469,0.0836198,0.2002716,1.030153,3.940561,-23.92156,-52.97201
14.76778698,119.8635,16.0804,-32.11508,0.07790139,0.166087,1.011257,3.940561,-23.92156,-52.97201
14.777645588,114.5215,17.27058,-29.29514,0.08108134,0.1250366,0.957195,3.940561,-23.92156,-52.97201
14.787503719,113.7762,17.50862,-26.72042,0.08103383,0.1411345,0.967874,3.940561,-23.92156,-52.97201
14.799827099,114.1488,19.11536,-25.61696,0.1153938,0.1849233,1.014715,3.940561,-23.92156,-52.97201
14.809685707,111.54,19.88897,-25.49436,0.08020867,0.2551443,1.007663,5.860028,-29.42526,-50.04449
14.819544315,102.1605,14.47366,-28.00778,0.01752635,0.2484418,0.9255984,5.860028,-29.42526,-50.04449
14.82940197,92.2840499999998,11.26018,-27.88517,0.05336021,0.2103584,0.9367462,5.860028,-29.42526,-50.04449
14.839260578,89.4267199999998,12.98594,-26.22999,0.1162587,0.2471223,0.9893512,5.860028,-29.42526,-50.04449
14.849119186,87.7495899999999,14.41415,-26.65911,0.1105973,0.2982585,1.013823,5.860028,-29.42526,-50.04449
14.858977318,79.6123999999998,17.27058,-24.207,0.1347715,0.3343047,1.096205,7.026935,-34.49617,-47.50158
14.868835926,70.2329000000003,18.99634,-20.65142,0.1315608,0.3460527,1.122227,7.026935,-34.49617,-47.50158
14.878694534,63.5243800000003,20.36504,-18.81233,0.095673,0.3139512,1.081257,7.026935,-34.49617,-47.50158
14.888553143,60.4806999999997,21.01964,-18.38321,0.06960969,0.2371663,1.039769,7.026935,-34.49617,-47.50158
14.898411274,63.8970800000001,17.50862,-20.2223,0.02530031,0.1073157,0.9051286,7.026935,-34.49617,-47.50158
14.908269882,76.3823800000002,17.62763,-21.50966,0.06880309,0.141732,0.8966526,8.555104,-37.79737,-45.36292
14.91812849,88.8676799999998,18.7583,-21.63227,0.1127838,0.2135251,0.9919924,8.555104,-37.79737,-45.36292
14.927986145,95.0792700000001,23.34049,-21.20315,0.1300061,0.3050038,1.079733,8.555104,-37.79737,-45.36292
14.937844753,94.76868,29.17237,-19.30276,0.1274344,0.3343751,1.13225,8.555104,-37.79737,-45.36292
14.947703361,90.1099900000003,33.87357,-15.31806,0.08715799,0.3110267,1.100042,8.555104,-37.79737,-45.36292
14.95756197,86.3209199999998,35.24228,-10.72034,0.003254893,0.1865574,0.9367803,10.02772,-40.71276,-42.01144
14.967420101,85.8239999999998,27.08955,-7.226065,-0.03527848,0.1150489,0.7747566,10.02772,-40.71276,-42.01144
14.979743004,91.5386599999999,21.13866,-6.85824700000003,0.02382897,0.2857525,0.7389356,10.02772,-40.71276,-42.01144
14.989601612,90.1721099999998,20.12701,-8.81994299999999,0.09210561,0.5281894,0.8646004,10.02772,-40.71276,-42.01144
14.999459743,77.74892,24.59018,-7.961701,0.03686173,0.6724426,0.9226715,10.02772,-40.71276,-42.01144
15.009318352,50.04523,20.60308,-5.509581,-0.06264821,0.5959648,0.876962,11.18655,-43.19506,-38.66275
15.01917696,30.66506,17.80616,0.1302944,-0.03554366,0.5894247,0.8856252,11.18655,-43.19506,-38.66275
15.029035568,14.76339,17.80616,2.398505,-0.004123365,0.5869398,0.927326,11.18655,-43.19506,-38.66275
15.0388937,1.781161,17.62763,7.854472,-0.02596005,0.5018438,0.8655816,11.18655,-43.19506,-38.66275
15.048752308,-3.622924,14.11661,10.06138,-0.06539031,0.4076734,0.7613625,11.18655,-43.19506,-38.66275
15.058610916,1.03577,11.3792,8.89662299999997,-0.0358213,0.366008,0.7404631,12.70627,-46.14058,-37.42405
15.068468571,9.54565000000002,9.41540100000002,7.54795700000002,-0.0385386,0.3756735,0.7290826,12.70627,-46.14058,-37.42405
15.078327179,19.42208,7.74915000000002,4.789322,-0.05711436,0.4328531,0.7087452,12.70627,-46.14058,-37.42405
15.088185787,28.42889,6.14240899999998,0.743324399999998,-0.04560667,0.5057716,0.7916188,12.70627,-46.14058,-37.42405
15.098044395,24.26712,6.67798900000002,-0.2988266,-0.02378872,0.5957446,0.8562799,12.70627,-46.14058,-37.42405
15.107902527,15.94359,6.61847999999998,0.682021400000003,-0.05927855,0.6114676,0.8506889,13.45574,-46.51736,-37.42414
15.117761135,6.439854,4.178614,1.356354,-0.06094923,0.5588034,0.8253498,13.45574,-46.51736,-37.42414
15.127619743,-0.641360199999998,3.166962,3.134141,-0.03512031,0.5026411,0.8403213,13.45574,-46.51736,-37.42414
15.137477398,-3.436576,2.571872,5.218443,-0.03354478,0.4408152,0.8297139,13.45574,-46.51736,-37.42414
15.149800777,1.284233,1.322185,4.053687,-0.02921705,0.421792,0.8074484,13.45574,-46.51736,-37.42414
15.159659386,6.874665,0.9056224,1.846778,-0.0165639,0.4536206,0.8305383,12.72351,-47.59535,-36.12869
15.169517994,9.54565000000002,0.846113400000001,0.8659304,-0.02376332,0.4667772,0.852316,12.72351,-47.59535,-36.12869
15.179376125,11.2849,1.381694,0.1915974,-0.02547074,0.4722015,0.8753876,12.72351,-47.59535,-36.12869
15.189234734,10.47739,1.381694,0.743324399999998,-0.02657821,0.4858264,0.8779144,12.72351,-47.59535,-36.12869
15.199093342,8.30333200000001,0.1915152,0.804627399999999,-0.02124446,0.4897664,0.8778716,12.72351,-47.59535,-36.12869
15.208950996,5.383883,-0.701118900000002,0.8659304,-0.01452244,0.4844204,0.8638339,13.09247,-47.23686,-36.51847
15.218809605,2.215972,-1.831789,0.3142034,-0.01465933,0.5184221,0.84783,13.09247,-47.23686,-36.51847
15.228668213,-1.759447,-2.783932,-0.6666446,-0.01167705,0.5627549,0.8543913,13.09247,-47.23686,-36.51847
15.238526821,-7.66045899999998,-3.081476,-1.647493,-0.01626143,0.5929342,0.8676497,13.09247,-47.23686,-36.51847
15.248384953,-14.30686,-3.855092,-2.567038,-0.01714852,0.5885575,0.8705006,13.09247,-47.23686,-36.51847
15.258243561,-21.0775,-4.926253,-3.977006,-0.02839121,0.5796723,0.8633978,12.7215,-47.2272,-36.13246
15.268102169,-27.28909,-6.17594099999999,-5.386975,-0.02146808,0.5738955,0.8637296,12.7215,-47.2272,-36.13246
15.277960777,-32.94164,-7.24710100000002,-6.98085300000002,-0.02084744,0.5661256,0.8665304,12.7215,-47.2272,-36.13246
15.287818432,-39.029,-8.615807,-8.51342899999998,-0.03163346,0.5660235,0.8647665,12.7215,-47.2272,-36.13246
15.29767704,-44.37096,-9.984512,-9.86209499999999,-0.02698437,0.5573447,0.8751693,12.7215,-47.2272,-36.13246
15.307535648,-49.5887,-10.52009,-11.08815,-0.02483787,0.5496045,0.8822615,13.08126,-46.88654,-37.80252
15.31739378,-55.17913,-12.12683,-12.25291,-0.02896449,0.5203506,0.8768022,13.08126,-46.88654,-37.80252
15.329717159,-59.8378300000001,-13.2575,-12.31421,-0.01725581,0.4883577,0.8821157,13.08126,-46.88654,-37.80252
15.339575768,-62.8814999999998,-13.31701,-11.14946,-0.01227061,0.460734,0.9005004,13.08126,-46.88654,-37.80252
15.349434376,-64.6828699999997,-13.07898,-9.80079199999999,-0.006831936,0.4223633,0.9068077,13.08126,-46.88654,-37.80252
15.35929203,-64.2480499999998,-13.37652,-9.80079199999999,-0.01488782,0.3994172,0.9057705,12.68954,-45.80094,-39.47626
15.369150639,-64.1859400000001,-14.98326,-10.59773,-0.0207132,0.4148661,0.886816,12.68954,-45.80094,-39.47626
15.379009247,-66.2978800000001,-17.60166,-12.25291,-0.005779103,0.4281167,0.8814437,12.68954,-45.80094,-39.47626
15.388867378,-69.27944,-18.43478,-13.29506,0.02025874,0.4065429,0.9062881,12.68954,-45.80094,-39.47626
15.398725987,-72.5094800000001,-18.19674,-14.33721,0.02998084,0.384777,0.918425,12.68954,-45.80094,-39.47626
15.408584595,-75.6152600000001,-18.43478,-16.36021,0.009265867,0.3645295,0.8883598,13.03726,-43.25139,-41.16895
15.418443203,-78.9695300000001,-20.75563,-18.38321,0.01474325,0.3470285,0.8799877,13.03726,-43.25139,-41.16895
15.428300858,-80.3360699999999,-21.94581,-20.52881,0.02608247,0.3290888,0.8705699,13.03726,-43.25139,-41.16895
15.438159466,-80.4603100000001,-22.60041,-22.73572,0.01715436,0.3240935,0.8572374,13.03726,-43.25139,-41.16895
15.448018074,-80.1497299999997,-23.255,-25.06524,0.005786194,0.2972433,0.8610064,13.03726,-43.25139,-41.16895
15.457876206,-79.9633799999998,-23.31451,-23.41006,-0.001010502,0.2918269,0.8600992,12.25336,-40.39902,-44.07524
15.467734814,-83.3797600000002,-24.32617,-19.05754,-0.02578566,0.2823791,0.8646854,12.25336,-40.39902,-44.07524
15.477593422,-88.2869199999999,-26.82554,-14.82764,-0.04886968,0.2914255,0.8660491,12.25336,-40.39902,-44.07524
15.48745203,-95.7408200000001,-27.71818,-11.02685,-0.0447427,0.2998209,0.8890627,12.25336,-40.39902,-44.07524
15.499774456,-108.4125,-28.67032,-5.754793,-0.03392553,0.3033495,0.8961263,12.25336,-40.39902,-44.07524
15.509633064,-122.3264,-30.99117,-1.524887,-0.0209783,0.2670454,0.9167202,12.21814,-37.86297,-47.04627
15.519491673,-138.2902,-30.15804,5.647564,0.01532494,0.2207961,0.9551068,12.21814,-37.86297,-47.04627
15.529350281,-154.8131,-29.32492,12.20698,0.02041009,0.1562307,0.9841998,12.21814,-37.86297,-47.04627
15.539208412,-165.9318,-25.09978,19.07292,0.05370812,0.08077697,1.027654,12.21814,-37.86297,-47.04627
15.54906702,-173.4478,-21.17219,26.36798,0.06204548,0.01912221,1.046662,12.21814,-37.86297,-47.04627
15.558925629,-179.5973,-21.29121,31.39482,0.0534949,-0.08522845,1.009484,11.04572,-33.48482,-50.86254
15.56878376,-178.4792,-19.02987,39.36421,0.09752151,-0.1765728,1.072298,11.04572,-33.48482,-50.86254
15.578641891,-173.5099,-14.98326,45.12669,0.1304256,-0.1904044,1.069317,11.04572,-33.48482,-50.86254
15.5885005,-162.6397,-12.18634,44.69757,0.116569,-0.1900829,1.058016,11.04572,-33.48482,-50.86254
15.598359108,-151.583,-11.35322,43.28761,0.1335315,-0.2404819,1.073642,11.04572,-33.48482,-50.86254
15.608217239,-135.9919,-9.15138699999998,41.142,0.1380509,-0.2612682,1.099758,9.490273,-26.20605,-53.81022
15.618075848,-118.351,-9.15138699999998,36.91209,0.1006086,-0.2740136,1.033575,9.490273,-26.20605,-53.81022
15.627934456,-100.3995,-9.984512,32.9274,0.09747551,-0.2980192,0.9979566,9.490273,-26.20605,-53.81022
15.637793064,-85.8644000000001,-8.37777100000001,30.8431,0.09165744,-0.2726685,1.02413,9.490273,-26.20605,-53.81022
15.647651195,-73.8760199999999,-8.02071800000003,29.73964,0.1073992,-0.195012,1.062897,9.490273,-26.20605,-53.81022
15.657509804,-71.5777400000002,-7.42562799999997,26.9197,0.122936,-0.141337,1.065525,7.633806,-19.21355,-55.53688
15.669832706,-65.67672,-5.10478,26.00016,0.1009983,-0.1124871,1.02487,7.633806,-19.21355,-55.53688
15.679690838,-62.9436199999998,-8.67531599999998,26.7971,0.05211363,-0.1837035,0.9650655,7.633806,-19.21355,-55.53688
15.689549446,-58.3470500000001,-9.03236999999999,26.9197,0.07025562,-0.2219659,0.9702344,7.633806,-19.21355,-55.53688
15.699408054,-50.39621,-7.18759300000001,24.7741,0.09518159,-0.1900167,0.9965048,7.633806,-19.21355,-55.53688
15.709266663,-43.87403,-6.59250300000002,22.50589,0.0937909,-0.2003957,0.9571427,7.230337,-14.8644,-56.41174
15.719124794,-36.42013,-5.342815,21.52504,0.08794701,-0.2097165,0.9509177,7.230337,-14.8644,-56.41174
15.728983402,-29.83584,-3.379021,19.37944,0.1001374,-0.2037606,0.9531902,7.230337,-14.8644,-56.41174
15.73884201,-23.74848,-2.843441,16.00777,0.09374659,-0.212614,0.9431434,7.230337,-14.8644,-56.41174
15.748699665,-17.47477,-2.248351,13.43304,0.09840386,-0.2549781,0.9245099,7.230337,-14.8644,-56.41174
15.758558273,-9.399704,-0.4630831,12.26829,0.1023845,-0.2617595,0.9234375,6.093884,-12.6488,-56.87667
15.768416882,-2.194258,-0.1655384,10.3679,0.0880571,-0.2492315,0.9242266,6.093884,-12.6488,-56.87667
15.77827549,2.712899,0.01298836,8.40619900000001,0.08801153,-0.2492445,0.9208728,6.093884,-12.6488,-56.87667
15.788133621,5.073304,0.2510241,7.67056300000001,0.09285685,-0.2492144,0.9174496,6.093884,-12.6488,-56.87667
15.797992229,6.129274,0.4890598,5.402352,0.1030165,-0.2364618,0.9202877,6.093884,-12.6488,-56.87667
15.807850838,6.62620199999998,0.846113400000001,2.643717,0.1005313,-0.2369829,0.9169642,5.717351,-11.53381,-56.43796
15.817709446,5.632347,0.846113400000001,1.417657,0.08994768,-0.2453271,0.9227951,5.717351,-11.53381,-56.43796
15.8275671,4.82484,0.2510241,0.3755064,0.08147789,-0.2273802,0.92738,5.717351,-11.53381,-56.43796
15.83989048,3.147711,-0.5225921,-1.831402,0.08919856,-0.2190414,0.9268612,5.717351,-11.53381,-56.43796
15.849749088,2.40232,-1.296208,-2.137917,0.07785462,-0.2260026,0.9140257,5.717351,-11.53381,-56.43796
15.85960722,2.712899,-2.30786,-2.505734,0.07091129,-0.2163257,0.915644,6.09062,-11.53901,-56.50391
15.869465828,3.45829,-2.843441,-3.24137,0.07297183,-0.2162788,0.9232821,6.09062,-11.53901,-56.50391
15.879324436,4.390029,-3.140985,-3.793097,0.0822935,-0.2142359,0.9270002,6.09062,-11.53901,-56.50391
15.889183044,5.632347,-2.783932,-3.977006,0.08040041,-0.2365583,0.9479235,6.09062,-11.53901,-56.50391
15.899040699,7.49582399999998,-2.30786,-3.425279,0.07917749,-0.2472425,0.9564764,6.09062,-11.53901,-56.50391
15.908899307,8.86237499999997,-1.891297,-2.321826,0.07887723,-0.2471929,0.9703779,5.719358,-11.90196,-56.43418
15.918757915,10.78797,-1.474735,-2.199219,0.08857604,-0.232972,0.9765892,5.719358,-11.90196,-56.43418
15.928616524,12.96203,-0.998663500000001,-2.444432,0.0920798,-0.2446364,0.972128,5.719358,-11.90196,-56.43418
15.938474655,16.0057,-0.3440652,-2.750947,0.09265492,-0.2480251,0.9754457,5.719358,-11.90196,-56.43418
15.948333263,19.04939,-0.04652058,-3.547885,0.09347199,-0.2339039,0.9760324,5.719358,-11.90196,-56.43418
15.958191872,21.4719,-0.2250474,-4.590036,0.09105995,-0.2246396,0.9866873,5.721366,-12.2701,-56.43041
15.968049526,22.83846,-0.3440652,-4.222218,0.08973426,-0.2387707,0.9846702,5.721366,-12.2701,-56.43041
15.977908134,24.01866,-0.760627799999999,-3.057462,0.09070008,-0.2426714,0.9803107,5.721366,-12.2701,-56.43041
15.987766743,25.94425,-1.117681,-3.180068,0.101091,-0.244988,0.9868518,5.721366,-12.2701,-56.43041
15.997625351,28.24254,-1.831789,-3.547885,0.08926085,-0.2543938,0.9720859,5.721366,-12.2701,-56.43041
16.007483482,34.51625,-2.605405,-3.731794,0.07787506,-0.2545318,0.9621838,5.722161,-13.01263,-56.87097
16.019806862,41.90804,-2.664914,-3.486583,0.09451374,-0.2392477,0.9759725,5.722161,-13.01263,-56.87097
16.02966547,49.36195,-3.021967,-4.712642,0.08967591,-0.2262286,0.9555457,5.722161,-13.01263,-56.87097
16.039524078,59.6731899999997,-4.450181,-4.344824,0.07501309,-0.2465074,0.9028716,5.722161,-13.01263,-56.87097
16.049381733,67.8103799999999,-3.140985,-3.670491,0.07699512,-0.2199835,0.9639255,5.722161,-13.01263,-56.87097
16.059240341,76.0096799999998,-2.605405,-5.93870199999998,0.1053419,-0.1861872,0.9556603,6.105135,-14.11516,-56.41349
16.069098949,85.4513,-1.534244,-7.90039899999997,0.09859228,-0.1433908,0.9647433,6.105135,-14.11516,-56.41349
16.078957081,95.1413799999998,-3.021967,-9.003853,0.09361167,-0.09965421,0.9608706,6.105135,-14.11516,-56.41349
16.088815689,100.4834,-0.1655384,-12.55943,0.09327859,-0.06432652,1.039283,6.105135,-14.11516,-56.41349
16.098674297,104.2724,2.809908,-16.66673,0.1121002,-0.04177234,1.040164,6.105135,-14.11516,-56.41349
16.108532906,109.9871,4.95223,-18.62842,0.1224796,-0.04311568,1.046713,6.1327,-17.03806,-54.78298
16.11839056,115.826,8.93932899999999,-19.67057,0.1326231,-0.04487935,1.071472,6.1327,-17.03806,-54.78298
16.128249168,124.4601,13.46201,-21.75488,0.1197461,-0.05298388,1.016958,6.1327,-17.03806,-54.78298
16.138107777,138.0014,14.41415,-22.2453,0.10313,-0.06253803,0.9739866,6.1327,-17.03806,-54.78298
16.147966385,148.6232,17.86567,-24.45221,0.07416304,-0.01058329,1.012215,6.1327,-17.03806,-54.78298
16.157824516,153.4682,21.4362,-29.78557,0.08318166,0.03553152,0.9607225,6.164907,-21.75015,-53.8384
16.167683125,152.1638,22.56688,-29.54036,0.09398195,0.07127827,0.9948934,6.164907,-21.75015,-53.8384
16.177541733,151.5426,25.00674,-27.82387,0.0768612,0.08612673,0.9722612,6.164907,-21.75015,-53.8384
16.187400341,148.9338,21.85277,-25.12654,0.03016242,0.02852819,0.9053528,6.164907,-21.75015,-53.8384
16.199722767,148.2505,20.54357,-17.89279,0.04359187,0.01308505,0.9079062,6.164907,-21.75015,-53.8384
16.209581375,150.4245,21.07915,-15.74718,0.01976209,0.07611194,0.9020689,7.716669,-28.35398,-50.89764
16.219439983,151.1699,12.62888,-18.32191,-0.0276157,0.08165405,0.8050343,7.716669,-28.35398,-50.89764
16.229298115,147.2566,9.53441800000002,-14.88894,0.003196952,0.08192523,0.8045974,7.716669,-28.35398,-50.89764
16.239156723,142.6601,11.14116,-9.24906400000001,0.05351898,0.1331287,0.8445651,7.716669,-28.35398,-50.89764
16.249015331,139.1194,12.7479,-6.429126,0.06426415,0.2481703,0.8726972,7.716669,-28.35398,-50.89764
16.25887394,129.5536,13.34299,-5.019157,0.03746809,0.3210621,0.909155,9.960462,-34.5184,-46.68453
16.268731594,114.8942,9.23687400000002,-1.095766,0.000926055,0.3221086,0.8852456,9.960462,-34.5184,-46.68453
16.278590202,102.5953,5.90437299999999,3.31805,0.00759792,0.3006368,0.8533421,9.960462,-34.5184,-46.68453
16.288448811,95.26562,2.036292,7.48665400000003,0.002425705,0.3033078,0.7992887,9.960462,-34.5184,-46.68453
16.298307419,95.1413799999998,1.203167,7.54795700000002,0.01634486,0.3696208,0.8020461,9.960462,-34.5184,-46.68453
16.30816555,91.91135,-0.3440652,6.99623000000001,0.01483039,0.4505049,0.8338982,10.38744,-39.25607,-42.86063
16.318024159,85.8861100000002,-1.117681,5.463655,0.01755887,0.5513998,0.8716091,10.38744,-39.25607,-42.86063
16.327882767,76.8793000000002,-1.891297,5.89277599999998,0.01755714,0.5806929,0.8972539,10.38744,-39.25607,-42.86063
16.337741375,68.8042399999998,-0.820136700000001,7.24144199999999,-0.001391151,0.5989784,0.8871359,10.38744,-39.25607,-42.86063
16.347599506,62.7789899999997,-1.712771,6.99623000000001,0.005565329,0.5980934,0.8942173,10.38744,-39.25607,-42.86063
16.357458115,58.8035699999999,-1.236699,6.07668500000002,0.01664586,0.60365,0.9223791,10.80885,-43.57047,-39.48923
16.369781017,52.46775,-0.4630831,4.850626,0.02162554,0.5940889,0.9562505,10.80885,-43.57047,-39.48923
16.379639149,49.42407,-0.701118900000002,4.053687,0.02432868,0.6003958,0.9447645,10.80885,-43.57047,-39.48923
16.389497757,46.38039,-0.4630831,3.379353,0.02692886,0.5950909,0.9513915,10.80885,-43.57047,-39.48923
16.399356365,41.90804,-0.820136700000001,3.011535,0.02741197,0.5823996,0.9397766,10.80885,-43.57047,-39.48923
16.409214974,37.74628,-0.760627799999999,3.501959,0.03607308,0.5829247,0.9295944,10.45913,-45.75188,-37.80031
16.419073105,33.83297,0.1915152,2.70502,0.05572417,0.5806807,0.9336082,10.45913,-45.75188,-37.80031
16.428931713,29.11216,0.9056224,2.030687,0.06272257,0.5773665,0.941627,10.45913,-45.75188,-37.80031
16.438790321,23.33538,1.441203,2.030687,0.05695839,0.5778329,0.9498594,10.45913,-45.75188,-37.80031
16.448648453,16.87533,1.560221,2.09199,0.05992456,0.5641974,0.940118,10.45913,-45.75188,-37.80031
16.458506584,12.65145,2.809908,1.356354,0.06936409,0.5623682,0.9490729,10.10941,-47.93328,-36.1114
16.468365193,8.80025999999999,3.881069,2.275899,0.06661671,0.5482371,0.9504304,10.10941,-47.93328,-36.1114
16.478223801,4.949072,4.892721,2.950232,0.05235558,0.5397904,0.9376239,10.10941,-47.93328,-36.1114
16.488082409,2.215972,5.368793,2.398505,0.05679984,0.5247062,0.9273701,10.10941,-47.93328,-36.1114
16.49794054,0.849421699999999,5.547319,1.969384,0.04763155,0.5201307,0.8967934,10.10941,-47.93328,-36.1114
16.507799149,-0.2065488,5.249775,1.356354,0.04411305,0.5132383,0.883847,10.86411,-48.67197,-35.65962
16.517657757,-0.0823169599999999,5.547319,0.927233400000001,0.0396064,0.5170754,0.8796308,10.86411,-48.67197,-35.65962
16.527516365,-1.076172,5.666337,0.1915974,0.03541392,0.5301434,0.8706961,10.86411,-48.67197,-35.65962
16.539838791,-3.37446,5.78535500000003,0.2529004,0.02663555,0.5251909,0.8683834,10.86411,-48.67197,-35.65962
16.549697399,-4.678895,5.96388199999997,0.682021400000003,0.01329905,0.5157609,0.8507635,10.86411,-48.67197,-35.65962
16.559556007,-5.05159,5.78535500000003,0.620718400000002,0.01106219,0.5283576,0.8413178,10.48837,-48.29951,-35.66146
16.569414139,-5.921213,5.606828,0.007688423,0.01623542,0.5381106,0.8346175,10.48837,-48.29951,-35.66146
16.579272747,-7.78468999999998,5.190266,-0.2375236,0.01006242,0.5356663,0.8461857,10.48837,-48.29951,-35.66146
16.589131355,-9.08912500000002,5.190266,0.4368094,-0.0001218347,0.5238831,0.8423977,10.48837,-48.29951,-35.66146
16.598989963,-9.52393499999999,4.41665,-0.2988266,0.0002529835,0.5258077,0.8356999,10.48837,-48.29951,-35.66146
16.608847618,-9.95874700000001,3.345489,-1.647493,0.01319671,0.5380551,0.8269932,10.48837,-48.29951,-35.66146
16.618706226,-11.88434,2.274328,-2.812249,0.01507002,0.5478131,0.8294448,10.48837,-48.29951,-35.66146
16.628564835,-13.87205,1.679239,-3.731794,0.01472204,0.5507783,0.8424131,10.48837,-48.29951,-35.66146
16.638423443,-17.41266,0.786604499999998,-5.203066,0.01117716,0.5697545,0.8502911,10.48837,-48.29951,-35.66146
16.648281574,-21.38808,0.2510241,-6.18391400000002,0.01180936,0.5610116,0.8530834,10.48837,-48.29951,-35.66146
16.658140182,-25.30138,-0.1655384,-6.98085300000002,0.01989583,0.552855,0.8648793,10.10741,-47.56514,-36.11517
16.667998791,-28.03448,-0.04652058,-7.77779200000001,0.02221161,0.5451631,0.8844286,10.10741,-47.56514,-36.11517
16.677857399,-29.89796,-0.1655384,-8.94255000000001,0.01755916,0.5261472,0.8852928,10.10741,-47.56514,-36.11517
16.687715053,-31.51297,-0.3440652,-10.53643,0.02550824,0.5218573,0.8904145,10.10741,-47.56514,-36.11517
16.697573662,-32.87952,-0.4630831,-11.70118,0.02027667,0.5296639,0.9082854,10.10741,-47.56514,-36.11517
16.70743227,-35.36415,-0.5225921,-12.86594,0.01458565,0.5355217,0.9266254,10.84612,-47.59069,-37.3353
16.719755173,-39.77439,-1.355717,-15.13415,0.0159417,0.5481969,0.9295883,10.84612,-47.59069,-37.3353
16.729613781,-45.36482,-2.248351,-15.62458,0.02649255,0.548367,0.9500449,10.84612,-47.59069,-37.3353
16.739472389,-51.07948,-3.021967,-16.42151,0.01738773,0.5346685,0.9519759,10.84612,-47.59069,-37.3353
16.749330997,-56.48357,-4.271655,-17.77018,0.01337356,0.5233759,0.9346866,10.84612,-47.59069,-37.3353
16.759188652,-61.7013099999999,-5.87839600000002,-19.91578,0.01639314,0.5019441,0.9220035,10.45516,-46.13161,-38.62872
16.76904726,-66.8569299999999,-6.830539,-21.44836,0.02546477,0.4767102,0.9192652,10.45516,-46.13161,-38.62872
16.778905868,-71.0808000000003,-7.42562799999997,-22.79703,0.03383989,0.4650832,0.9132974,10.45516,-46.13161,-38.62872
16.788764477,-75.49104,-7.42562799999997,-23.96178,0.027246,0.4727716,0.9029139,10.45516,-46.13161,-38.62872
16.798622608,-80.7708899999998,-9.15138699999998,-25.86217,0.0174454,0.4731684,0.9020985,10.45516,-46.13161,-38.62872
16.808481216,-87.91422,-11.05567,-27.94648,0.01399268,0.462389,0.890556,11.93209,-45.06759,-40.31212
16.818339825,-95.36813,-12.48389,-28.19169,0.002921334,0.4462292,0.889619,11.93209,-45.06759,-40.31212
16.828198433,-103.0705,-13.198,-27.02693,-0.0023791,0.3999581,0.8907416,11.93209,-45.06759,-40.31212
16.838056087,-111.9531,-13.49554,-20.83533,-0.01163205,0.3531531,0.8885617,11.93209,-45.06759,-40.31212
16.847914696,-119.2828,-13.31701,-13.9694,-0.02183388,0.3302709,0.9095987,11.93209,-45.06759,-40.31212
16.857773304,-128.1032,-12.78143,-9.06515500000003,-0.0341585,0.3048829,0.9162689,11.8921,-42.16874,-43.671
16.867631912,-140.7749,-12.42438,-1.524887,-0.01878449,0.2778714,0.9436154,11.8921,-42.16874,-43.671
16.877490044,-155.869,-11.2342,5.83147299999998,-0.007319307,0.2658263,0.9486216,11.8921,-42.16874,-43.671
16.889813423,-177.7959,-9.92500399999998,15.76256,-0.01570964,0.2759843,0.9521813,11.8921,-42.16874,-43.671
16.899672031,-196.555,-9.21089600000002,22.44459,0.01065444,0.2077689,0.9957954,12.58865,-37.87353,-47.4963
16.90953064,-212.1461,-6.71152099999998,30.41397,0.03150969,0.1310345,0.9867041,12.58865,-37.87353,-47.4963
16.919388294,-224.7556,-5.283307,36.48297,0.04900471,0.04075281,1.006298,12.58865,-37.87353,-47.4963
16.929246902,-231.3399,-3.319512,42.12285,0.08201664,-0.05564113,1.046226,12.58865,-37.87353,-47.4963
16.939105511,-229.5385,-0.641609900000002,45.55582,0.08031897,-0.1641888,1.0415,12.58865,-37.87353,-47.4963
16.948964119,-218.9788,2.214819,46.16885,0.04260102,-0.2200595,1.024794,12.58865,-37.87353,-47.4963
16.95882225,-200.0334,3.643033,44.82018,0.08041074,-0.2152912,1.039151,10.27299,-30.54882,-52.16911
16.968680859,-179.6594,5.606828,36.72818,0.04446246,-0.1890931,0.9732755,10.27299,-30.54882,-52.16911
16.978539467,-159.3475,1.381694,31.51743,0.002987454,-0.1994661,0.9004616,10.27299,-30.54882,-52.16911
16.988398075,-142.9489,-1.355717,27.59404,-0.0137329,-0.213444,0.8459531,10.27299,-30.54882,-52.16911
16.99825573,-128.2274,-0.582100999999999,24.46758,0.02643908,-0.2977531,0.8475443,10.27299,-30.54882,-52.16911
17.008114338,-110.835,-1.17719,26.42928,0.04832692,-0.3163644,0.8935576,10.20318,-21.07309,-54.76306
17.017972946,-97.7285299999998,0.310533,26.67449,0.03087388,-0.3091521,0.9115976,10.20318,-21.07309,-54.76306
17.027831078,-85.3674699999998,1.679239,23.79325,0.008972225,-0.2475807,0.9023662,10.20318,-21.07309,-54.76306
17.037689686,-76.29855,0.9056224,19.44074,-0.002889129,-0.2175842,0.8840996,10.20318,-21.07309,-54.76306
17.047548294,-67.7886699999998,-0.4630831,16.6821,-0.01804788,-0.2119933,0.8536941,10.20318,-21.07309,-54.76306
17.057406902,-63.2542000000002,-2.724423,15.27213,-0.0154633,-0.2451315,0.8346888,9.028203,-13.41356,-56.50018
17.069729328,-56.42145,-2.962458,15.51735,-0.0008010138,-0.3078514,0.8143033,9.028203,-13.41356,-56.50018
17.079587936,-48.78119,-3.43853,14.90432,-0.0004019244,-0.3238491,0.829497,9.028203,-13.41356,-56.50018
17.089446545,-40.70612,-3.676566,14.22998,-0.004961123,-0.3029389,0.8364472,9.028203,-13.41356,-56.50018
17.099305153,-34.80511,-5.99741399999999,13.06523,-0.0007127654,-0.3047617,0.8593729,9.383862,-10.10455,-56.53605
17.109163284,-31.32662,-6.35446700000003,13.06523,0.01991278,-0.3138333,0.8570856,9.383862,-10.10455,-56.53605
17.119021893,-28.59352,-7.24710100000002,11.71656,0.03042962,-0.3146492,0.87418,9.383862,-10.10455,-56.53605
17.128880501,-24.6181,-7.24710100000002,10.06138,0.03706543,-0.3247668,0.8855007,9.383862,-10.10455,-56.53605
17.138739109,-20.26999,-7.78268199999998,7.60926000000002,0.03983177,-0.3451594,0.8910397,9.383862,-10.10455,-56.53605
17.148596764,-16.17034,-7.90170000000001,6.13798800000002,0.0439252,-0.3548379,0.8956916,8.683886,-7.893098,-56.93921
17.158455372,-11.76011,-7.18759300000001,5.218443,0.04920394,-0.3528665,0.8898826,8.683886,-7.893098,-56.93921
17.16831398,-7.28776300000003,-6.53299399999998,4.053687,0.04346953,-0.3455564,0.9063188,8.683886,-7.893098,-56.93921
17.178172588,-3.99562,-6.41397600000001,3.072838,0.04113961,-0.3597035,0.9023991,8.683886,-7.893098,-56.93921
17.18803072,-0.579244300000001,-6.23544999999998,2.582414,0.02595909,-0.3549601,0.9055306,8.683886,-7.893098,-56.93921
17.197889328,2.464436,-6.11643200000001,1.785475,0.02244239,-0.3389052,0.9129043,8.683886,-7.893098,-56.93921
17.207747936,4.265797,-6.29495900000002,0.007688423,0.03688613,-0.3134536,0.9181844,8.681417,-6.843776,-56.5018
17.217606545,4.327913,-5.93790500000001,-0.4827355,0.04428327,-0.311907,0.9238424,8.681417,-6.843776,-56.5018
17.227464676,3.76887,-6.23544999999998,-0.2375236,0.03876602,-0.2992996,0.9249859,8.681417,-6.843776,-56.5018
17.239787579,4.638493,-6.29495900000002,-0.5440385,0.04488391,-0.3025946,0.9402052,8.681417,-6.843776,-56.5018
17.249646187,6.31562199999998,-6.11643200000001,-0.727947499999999,0.0476632,-0.3273774,0.9428317,7.55701,-6.837064,-56.9441
17.259504795,9.42141799999999,-5.580852,-0.911856500000002,0.05208527,-0.3268447,0.9446899,7.55701,-6.837064,-56.9441
17.269362927,12.15452,-5.521342,-1.402281,0.04462582,-0.3352442,0.9284326,7.55701,-6.837064,-56.9441
17.279221535,12.96203,-5.223798,-0.6053416,0.05096684,-0.3205464,0.939967,7.55701,-6.837064,-56.9441
17.289080143,13.02414,-4.50969,-1.034463,0.07344797,-0.2969183,0.959014,7.55701,-6.837064,-56.9441
17.298938751,12.4651,-4.271655,-2.076613,0.06804565,-0.2901368,0.963461,7.935172,-7.142825,-56.55881
17.308796883,12.65145,-4.033619,-2.62834,0.06038704,-0.309199,0.9590965,7.935172,-7.142825,-56.55881
17.318655014,13.70742,-4.628708,-2.750947,0.05065488,-0.3283118,0.9461355,7.935172,-7.142825,-56.55881
17.328513622,16.12994,-4.450181,-3.486583,0.05834299,-0.3199822,0.9432211,7.935172,-7.142825,-56.55881
17.338372231,18.55246,-4.093128,-4.590036,0.06520473,-0.3189414,0.9450488,7.935172,-7.142825,-56.55881
17.348230362,22.52788,-3.736075,-5.754793,0.06852418,-0.3189409,0.9373344,7.560691,-7.512002,-56.93719
17.35808897,28.24254,-3.557548,-7.28736799999999,0.06446165,-0.3234121,0.9224993,7.560691,-7.512002,-56.93719
17.367947579,36.19338,-3.140985,-9.55557899999999,0.0689097,-0.327266,0.9224034,7.560691,-7.512002,-56.93719
17.377806187,46.38039,-2.30786,-12.98855,0.07384165,-0.3389287,0.9150467,7.560691,-7.512002,-56.93719
17.387664318,59.7974299999998,-1.77228,-17.09585,0.06758228,-0.3599502,0.9039369,7.560691,-7.512002,-56.93719
17.397522926,76.0096799999998,-0.998663500000001,-19.85448,0.0725636,-0.3603696,0.910092,7.560691,-7.512002,-56.93719
17.407381535,98.4335299999998,-1.296208,-21.08054,0.03808723,-0.3136518,0.8625785,7.570729,-9.352739,-56.91833
17.419704437,118.0622,-2.426878,-20.71272,0.02586098,-0.2956947,0.8787178,7.570729,-9.352739,-56.91833
17.429562569,125.3297,-2.30786,-18.2606,0.03516684,-0.2868211,0.8872857,7.570729,-9.352739,-56.91833
17.439421177,133.1563,-4.331164,-16.54412,0.0223691,-0.2680506,0.8622289,7.570729,-9.352739,-56.91833
17.449279785,139.6164,-5.580852,-14.33721,0.0528366,-0.3144772,0.8671533,7.58951,-11.17655,-55.68322
17.459138394,145.9522,-2.188842,-10.41382,0.07600599,-0.3230111,0.8725014,7.58951,-11.17655,-55.68322
17.468996525,153.4682,0.846113400000001,-8.206914,0.09892277,-0.2915823,0.8944832,7.58951,-11.17655,-55.68322
17.478855133,161.916,6.43995299999998,-5.203066,0.1114376,-0.2223348,0.9044732,7.58951,-11.17655,-55.68322
17.488713741,165.4566,10.01049,-1.402281,0.09948473,-0.1230363,0.9404632,7.58951,-11.17655,-55.68322
17.49857235,160.6737,9.41540100000002,2.888929,0.06799423,-0.03393742,0.8980568,7.630083,-17.42259,-54.72293
17.508430004,152.0396,6.97553399999999,4.789322,0.03930023,0.067977,0.892617,7.630083,-17.42259,-54.72293
17.518288612,141.6041,3.583524,3.624565,-0.01543559,0.1670527,0.8405629,7.630083,-17.42259,-54.72293
17.528147221,124.5222,-5.402325,4.973231,-0.01410734,0.2518423,0.8690532,7.630083,-17.42259,-54.72293
17.538005829,102.6574,-9.92500399999998,-0.4214326,-0.02127196,0.3559017,0.8657207,7.630083,-17.42259,-54.72293
17.54786396,75.6369900000002,-13.67407,-3.547885,0.02289177,0.3759948,0.9289944,7.692617,-25.05224,-51.76375
17.557722568,48.24387,-15.51884,-1.218372,0.05904495,0.3605962,1.019397,7.692617,-25.05224,-51.76375
17.567581177,27.55927,-16.29246,3.31805,0.07373676,0.2921611,1.032028,7.692617,-25.05224,-51.76375
17.577439785,16.0057,-17.78018,7.42535099999997,0.07671754,0.2032602,1.064779,7.692617,-25.05224,-51.76375
17.589762211,13.21049,-19.38692,8.77401600000001,0.06391393,0.1280716,1.028387,7.692617,-25.05224,-51.76375
17.599620819,17.49649,-19.56545,8.28359300000002,0.07126905,0.0804305,1.023567,7.724365,-29.76521,-50.88318
17.609479427,24.01866,-20.16054,6.93492700000001,0.07142176,0.08180355,1.000096,7.724365,-29.76521,-50.88318
17.619338035,32.28008,-22.5409,3.747171,0.07959902,0.08951404,0.9607499,7.724365,-29.76521,-50.88318
17.629196167,41.10054,-23.255,0.0689914200000002,0.1058403,0.07713941,0.9727308,7.724365,-29.76521,-50.88318
17.639054775,50.54216,-24.38568,-3.670491,0.124346,0.07253315,0.9983048,7.724365,-29.76521,-50.88318
17.648913383,59.3005000000001,-23.67157,-6.36782300000001,0.1297743,0.06136507,0.9919036,6.982135,-30.1185,-50.42745
17.658771992,67.0649899999999,-24.08813,-6.98085300000002,0.1151481,0.06550804,0.9633951,6.982135,-30.1185,-50.42745
17.668629646,73.4629300000001,-24.02862,-8.51342899999998,0.1066861,0.07062814,0.9213893,6.982135,-30.1185,-50.42745
17.678488254,80.29568,-25.33782,-10.84294,0.100115,0.09660537,0.8570104,6.982135,-30.1185,-50.42745
17.688346863,86.3209199999998,-25.93291,-12.86594,0.104588,0.1553343,0.8061678,6.982135,-30.1185,-50.42745
17.698205471,92.15982,-25.2188,-15.44067,0.1221562,0.202701,0.8087132,5.884958,-32.29127,-48.73467
17.708063602,95.3898499999998,-23.9096,-17.46367,0.1442854,0.2521047,0.8246284,5.884958,-32.29127,-48.73467
17.717922211,96.1352399999998,-21.58875,-18.32191,0.1513804,0.2647943,0.8179256,5.884958,-32.29127,-48.73467
17.727780819,96.1973500000002,-19.74398,-16.66673,0.1439297,0.2716675,0.8516337,5.884958,-32.29127,-48.73467
17.737639427,97.87448,-19.08938,-15.68588,0.1263477,0.3100896,0.8876693,5.884958,-32.29127,-48.73467
17.747497082,99.8000799999999,-17.78018,-15.80848,0.1123216,0.3406328,0.890523,5.549252,-35.93368,-46.1985
17.759820461,101.7878,-16.64951,-15.93109,0.09938196,0.3565687,0.8884459,5.549252,-35.93368,-46.1985
17.769679069,102.968,-17.60166,-13.41767,0.1013219,0.32387,0.8584319,5.549252,-35.93368,-46.1985
17.779537678,106.7571,-17.78018,-11.21076,0.1035363,0.3042966,0.8242121,5.549252,-35.93368,-46.1985
17.789395809,111.7884,-19.02987,-9.18776100000002,0.09762767,0.2684579,0.7540306,5.549252,-35.93368,-46.1985
17.799254417,117.441,-20.39858,-6.429126,0.118263,0.2883296,0.8138041,5.589282,-39.94856,-43.66048
17.809113026,120.7953,-24.5642,-5.509581,0.1060742,0.3393616,0.8259093,5.589282,-39.94856,-43.66048
17.818971634,123.8389,-27.2421,-5.69349,0.08395007,0.4162225,0.7420551,5.589282,-39.94856,-43.66048
17.828829288,125.5161,-28.84884,-6.79694399999997,0.1118009,0.5665635,0.7999516,5.589282,-39.94856,-43.66048
17.838687897,119.4908,-29.62246,-9.12645800000002,0.1580523,0.698598,0.8636611,5.589282,-39.94856,-43.66048
17.848546505,104.2724,-26.82554,-6.24521700000002,0.1950375,0.7240421,0.9433749,4.886246,-43.14022,-39.91051
17.858405113,85.9482300000002,-22.42188,1.111142,0.2038331,0.7287816,1.018524,4.886246,-43.14022,-39.91051
17.868263245,70.79195,-17.30411,6.81232100000002,0.2120641,0.7178721,1.074381,4.886246,-43.14022,-39.91051
17.878121853,58.6172300000002,-14.20965,8.40619900000001,0.2045848,0.6881202,1.073757,4.886246,-43.14022,-39.91051
17.887980461,49.11349,-13.37652,6.81232100000002,0.1917445,0.6747908,1.053222,4.886246,-43.14022,-39.91051
17.897839069,41.90804,-14.09063,5.341049,0.1985793,0.6577595,1.037167,4.561749,-47.13296,-36.09029
17.907696724,38.55378,-13.2575,3.011535,0.2154172,0.6446481,1.00471,4.561749,-47.13296,-36.09029
17.917555332,36.37973,-11.41273,2.030687,0.2355935,0.6404659,1.009659,4.561749,-47.13296,-36.09029
17.92741394,33.08758,-8.91335200000002,3.011535,0.255238,0.6344494,1.045747,4.561749,-47.13296,-36.09029
17.93973732,27.49715,-4.212146,5.341049,0.2676084,0.6258097,1.048373,4.561749,-47.13296,-36.09029
17.949595451,24.32924,-0.701118900000002,5.586261,0.2499868,0.6334623,1.054439,3.462563,-48.93759,-34.40128
17.95945406,18.86304,1.61973,4.973231,0.2359623,0.6303183,1.027777,3.462563,-48.93759,-34.40128
17.969312668,12.0924,2.631382,5.095838,0.2285864,0.6379189,0.9958403,3.462563,-48.93759,-34.40128
17.979171276,5.81869499999997,4.297632,4.666717,0.240465,0.6442741,0.9755983,3.462563,-48.93759,-34.40128
17.989029884,0.663074000000001,6.02339100000001,4.728019,0.2349866,0.6393163,0.9641337,3.462563,-48.93759,-34.40128
17.998887539,-4.927359,7.98718600000001,4.911928,0.2296938,0.6192766,0.9530184,2.731127,-50.75811,-33.54639
18.008746147,-9.21335600000002,9.29638199999997,5.341049,0.2133749,0.5995544,0.922895,2.731127,-50.75811,-33.54639
18.018604755,-11.20107,10.84361,5.402352,0.2082516,0.5877276,0.8955538,2.731127,-50.75811,-33.54639
18.028463364,-11.63588,11.91478,5.218443,0.1960322,0.5798106,0.8894316,2.731127,-50.75811,-33.54639
18.038321495,-12.69185,12.39085,5.463655,0.1821344,0.5830498,0.877677,2.731127,-50.75811,-33.54639
18.048180103,-14.61744,12.7479,5.279747,0.1762302,0.5979879,0.8524897,3.094858,-50.03771,-34.38803
18.058038712,-16.17034,13.34299,5.279747,0.1698598,0.6028107,0.8559756,3.094858,-50.03771,-34.38803
18.06789732,-19.02767,13.58103,4.789322,0.1638872,0.5988237,0.8450054,3.094858,-50.03771,-34.38803
18.077754974,-21.51231,13.16446,4.237596,0.1554366,0.5904119,0.8278037,3.094858,-50.03771,-34.38803
18.087613583,-22.69251,12.98594,3.869777,0.1541854,0.578255,0.8329901,3.094858,-50.03771,-34.38803
18.097472191,-23.31367,13.22397,3.134141,0.1508977,0.5733813,0.8387463,3.840309,-49.6782,-34.39567
18.10979557,-23.18944,13.22397,1.724172,0.1472279,0.5616987,0.8463672,3.840309,-49.6782,-34.39567
18.119653702,-23.31367,12.92643,0.682021400000003,0.1569418,0.5686007,0.8472454,3.840309,-49.6782,-34.39567
18.12951231,-23.74848,12.68839,-0.6053416,0.1610073,0.5750256,0.8640136,3.840309,-49.6782,-34.39567
18.139370918,-24.74234,12.68839,-1.954008,0.1627083,0.579011,0.8846286,3.840309,-49.6782,-34.39567
18.149229527,-26.29523,12.56937,-4.099612,0.1558271,0.5867527,0.8891048,3.455828,-49.32266,-35.61377
18.159087181,-28.28294,12.98594,-7.04215600000001,0.1711567,0.5903515,0.904251,3.455828,-49.32266,-35.61377
18.168945789,-30.95393,14.47366,-8.636034,0.179169,0.6021912,0.9281968,3.455828,-49.32266,-35.61377
18.178804398,-34.743,15.54482,-10.16861,0.1711546,0.5939037,0.9430962,3.455828,-49.32266,-35.61377
18.188663006,-39.09111,16.19942,-10.47512,0.1552176,0.5728258,0.9397911,3.455828,-49.32266,-35.61377
18.198521137,-40.70612,17.80616,-9.86209499999999,0.1694029,0.5442809,0.9503696,3.819561,-48.60226,-36.45543
18.208379746,-39.58804,19.76995,-10.78164,0.1735967,0.5234017,0.9525297,3.819561,-48.60226,-36.45543
18.218238354,-37.60033,21.91228,-11.9464,0.1740338,0.5277853,0.9525604,3.819561,-48.60226,-36.45543
18.228096962,-36.60647,22.56688,-14.27591,0.1672976,0.5534975,0.9476022,3.819561,-48.60226,-36.45543
18.23795557,-38.53207,23.10246,-16.36021,0.1654104,0.5728939,0.933896,3.819561,-48.60226,-36.45543
18.247813225,-42.32114,23.04295,-17.40236,0.1525923,0.5917938,0.943343,4.923515,-47.16044,-37.75658
18.257671833,-48.71908,22.50737,-18.68973,0.1314204,0.5930332,0.9345504,4.923515,-47.16044,-37.75658
18.267530441,-56.6078,21.79326,-19.60927,0.1224173,0.6075456,0.9328844,4.923515,-47.16044,-37.75658
18.279853344,-66.8569299999999,20.60308,-20.03839,0.1038072,0.5995633,0.9244567,4.923515,-47.16044,-37.75658
18.289711952,-75.0562299999998,20.0675,-19.85448,0.1025733,0.5771586,0.9218892,4.923515,-47.16044,-37.75658
18.299570561,-82.94495,20.0675,-19.30276,0.09065212,0.5336861,0.9063579,6.031485,-46.45491,-39.05019
18.309429169,-88.9701899999998,18.81781,-18.81233,0.08475477,0.4849388,0.8974049,6.031485,-46.45491,-39.05019
18.319287777,-92.8213799999997,18.28223,-18.07669,0.08800641,0.4533204,0.8927789,6.031485,-46.45491,-39.05019
18.329145432,-94.9954399999999,18.93683,-17.27976,0.08388989,0.4221165,0.8863447,6.031485,-46.45491,-39.05019
18.33900404,-95.5544700000002,20.00799,-15.99239,0.07226045,0.3909328,0.9030192,6.031485,-46.45491,-39.05019
18.348862648,-95.8029400000002,21.25768,-14.33721,0.07145657,0.3427747,0.9093331,6.743723,-43.9275,-42.02508
18.358721256,-95.6165899999997,21.91228,-11.57858,0.0650183,0.3115845,0.9120368,6.743723,-43.9275,-42.02508
18.368579388,-94.9333199999998,22.50737,-9.37167100000003,0.05847818,0.2906181,0.9162658,6.743723,-43.9275,-42.02508
18.378437996,-94.3742799999998,22.56688,-8.75863999999999,0.06986444,0.2736683,0.9111686,6.743723,-43.9275,-42.02508
18.388296604,-94.56062,22.38835,-6.24521700000002,0.07140709,0.2799145,0.8862809,6.743723,-43.9275,-42.02508
18.398155212,-95.4923599999999,21.85277,-6.06130799999997,0.04705864,0.259224,0.8763901,8.202207,-41.10103,-44.94297
18.408013344,-95.4923599999999,20.66259,-6.06130799999997,0.0318259,0.2551645,0.8679474,8.202207,-41.10103,-44.94297
18.417871952,-96.17564,19.11536,-6.36782300000001,0.03697544,0.2323346,0.8667229,8.202207,-41.10103,-44.94297
18.427730084,-96.3619800000003,18.40125,-5.08046,0.02324519,0.2126748,0.8471056,8.202207,-41.10103,-44.94297
18.437588692,-96.92103,16.85402,-4.896551,0.01169419,0.1984664,0.8485878,8.202207,-41.10103,-44.94297
18.4474473,-97.8527699999999,15.54482,-3.302674,0.008672444,0.1756042,0.8580219,9.965312,-37.11325,-47.93842
18.459770203,-99.2193099999997,14.0571,-1.218372,0.0005276678,0.1584915,0.8555976,9.965312,-37.11325,-47.93842
18.469628811,-102.1388,12.92643,0.8659304,-0.004420367,0.1594086,0.8523214,9.965312,-37.11325,-47.93842
18.479487419,-105.6173,10.60558,2.09199,-0.02141549,0.1581814,0.8247598,9.965312,-37.11325,-47.93842
18.489346027,-111.2698,7.86816799999999,3.501959,-0.01682493,0.1538799,0.8347212,9.965312,-37.11325,-47.93842
18.499203682,-118.1647,5.725846,4.54411,-0.009418532,0.1013712,0.8293805,10.29822,-32.36016,-50.03781
18.50906229,-124.3141,4.238123,8.590108,0.00170156,0.04702233,0.8436185,10.29822,-32.36016,-50.03781
18.518920899,-128.0411,3.881069,11.71656,0.01616064,-0.007320506,0.8515794,10.29822,-32.36016,-50.03781
18.528779507,-128.2896,4.238123,14.84301,0.02641702,-0.05041607,0.8841343,10.29822,-32.36016,-50.03781
18.538637638,-125.9913,5.249775,16.6208,0.0269751,-0.07759763,0.9011481,10.29822,-32.36016,-50.03781
18.548496246,-123.0097,5.547319,17.11123,0.02415895,-0.0941894,0.8952979,11.00472,-27.67363,-52.20251
18.558354854,-117.8541,3.82156,17.29513,0.01669476,-0.121849,0.9335068,11.00472,-27.67363,-52.20251
18.568213463,-110.5244,4.95223,17.35644,0.0003956594,-0.1246127,0.883879,11.00472,-27.67363,-52.20251
18.578071594,-105.99,3.166962,16.80471,-0.006671011,-0.1836758,0.8518541,11.00472,-27.67363,-52.20251
18.587930202,-100.8343,0.608077699999999,18.52119,-0.005783292,-0.2304276,0.8399462,11.00472,-27.67363,-52.20251
18.597788811,-93.1940699999999,-0.2250474,19.50204,-0.001811846,-0.2215883,0.8519441,10.21598,-22.90848,-54.36013
18.607647419,-86.1749700000001,0.1320062,19.44074,0.02018437,-0.2082162,0.8622859,10.21598,-22.90848,-54.36013
18.617506027,-78.34837,-0.1655384,19.74725,0.01896701,-0.1897404,0.8610215,10.21598,-22.90848,-54.36013
18.629828453,-78.4104799999998,-2.010315,19.56334,0.01729204,-0.1880775,0.9190425,10.21598,-22.90848,-54.36013
18.639687061,-80.0876199999999,-2.129333,19.99247,0.02466718,-0.205578,0.9063306,10.21598,-22.90848,-54.36013
18.649545669,-77.4166300000001,-4.152637,19.86986,0.007529379,-0.2145224,0.8973945,10.18223,-17.82736,-55.24447
18.659404278,-74.3729500000002,-4.271655,18.39859,0.007467418,-0.2422338,0.9043495,10.18223,-17.82736,-55.24447
18.669261932,-70.4596499999999,-5.164289,16.31429,0.008783167,-0.2601933,0.913284,10.18223,-17.82736,-55.24447
18.679120541,-64.2480499999998,-6.23544999999998,14.10738,0.00532167,-0.276834,0.8959417,10.18223,-17.82736,-55.24447
18.688979149,-59.8999399999999,-7.18759300000001,14.78171,0.008008356,-0.3026196,0.8908938,10.18223,-17.82736,-55.24447
18.698837757,-57.5395400000001,-7.12808399999997,14.84301,0.027272,-0.2804276,0.9238713,9.4067,-13.78068,-56.11426
18.708695888,-56.04876,-7.54464599999999,14.10738,0.04163359,-0.2787873,0.9380565,9.4067,-13.78068,-56.11426
18.718554497,-54.49586,-7.54464599999999,13.98477,0.02895931,-0.2725404,0.9469154,9.4067,-13.78068,-56.11426
18.728413105,-51.57641,-7.90170000000001,12.88132,0.03256889,-0.2700161,0.9626989,9.4067,-13.78068,-56.11426
18.738271713,-48.0358,-8.91335200000002,10.61311,0.02342335,-0.2978848,0.9491764,9.4067,-13.78068,-56.11426
18.748130321,-41.94844,-9.44893200000001,10.30659,0.01191654,-0.3565093,0.9148225,9.38587,-10.4727,-56.53228
18.757988453,-34.43242,-9.270405,10.06138,0.01360458,-0.3481336,0.9383499,9.38587,-10.4727,-56.53228
18.767847061,-28.65564,-8.67531599999998,8.34489499999999,0.02131082,-0.3363813,0.9397768,9.38587,-10.4727,-56.53228
18.777705669,-24.30752,-8.79433299999997,6.751019,0.03851208,-0.3415774,0.9409254,9.38587,-10.4727,-56.53228
18.787564278,-21.45019,-8.13973500000002,6.81232100000002,0.03611121,-0.3118044,0.9704421,9.38587,-10.4727,-56.53228
18.797421932,-20.58057,-7.84219100000002,5.341049,0.04433703,-0.2927157,0.9805492,9.374619,-9.006345,-56.99546
18.809745312,-19.58672,-8.08022700000001,4.482807,0.0371824,-0.3322748,0.9592325,9.374619,-9.006345,-56.99546
18.81960392,-18.53074,-8.02071800000003,6.26059400000001,0.03003826,-0.3474196,0.9601649,9.374619,-9.006345,-56.99546
18.829462528,-17.599,-7.24710100000002,6.50580599999999,0.04320508,-0.3165561,0.9841977,9.374619,-9.006345,-56.99546
18.839320183,-16.23246,-6.23544999999998,5.341049,0.06165237,-0.3130143,0.9767766,9.374619,-9.006345,-56.99546
18.849178791,-12.25704,-5.580852,3.992383,0.05445295,-0.3477039,0.9564601,8.307689,-7.521525,-57.00507
18.859037399,-6.85295199999998,-5.10478,4.666717,0.03249348,-0.3713184,0.9398018,8.307689,-7.521525,-57.00507
18.868896008,-1.821563,-4.688217,4.850626,0.03815301,-0.3547267,0.9389028,8.307689,-7.521525,-57.00507
18.878754139,1.03577,-3.855092,3.685868,0.05461669,-0.3346103,0.9441091,8.307689,-7.521525,-57.00507
18.888612747,3.209827,-2.843441,3.011535,0.05166097,-0.3488007,0.9301347,8.307689,-7.521525,-57.00507
18.898471355,4.203681,-2.426878,2.888929,0.04334896,-0.3254383,0.9510559,8.302,-6.47844,-57.01575
18.908329964,5.197536,-2.129333,1.601566,0.03470889,-0.3256043,0.9272177,8.302,-6.47844,-57.01575
18.918188572,5.445999,-2.188842,1.356354,0.04218044,-0.3308717,0.9323379,8.302,-6.47844,-57.01575
18.928046703,4.265797,-2.545896,0.682021400000003,0.05052061,-0.3093092,0.9530066,8.302,-6.47844,-57.01575
18.937905312,3.644638,-2.426878,0.3142034,0.04344375,-0.3279876,0.919885,8.302,-6.47844,-57.01575
18.94776392,4.203681,-2.783932,1.295051,0.04508521,-0.3376895,0.9240926,7.555002,-6.468916,-56.94787
18.957622528,5.81869499999997,-2.248351,0.3755064,0.06813355,-0.3140349,0.948882,7.555002,-6.468916,-56.94787
18.967480183,6.93678100000001,-1.296208,-1.157069,0.05735611,-0.321458,0.9413058,7.555002,-6.468916,-56.94787
18.979803562,9.794114,-2.010315,-3.180068,0.03340121,-0.3451008,0.9218006,7.555002,-6.468916,-56.94787
18.98966217,13.33472,-2.545896,-3.180068,0.04230661,-0.3596411,0.9162797,7.555002,-6.468916,-56.94787
18.999520779,15.44666,-2.605405,-3.486583,0.05917256,-0.3410097,0.9138006,7.929483,-6.09974,-56.5695
19.00937891,16.12994,-2.605405,-4.651339,0.05943847,-0.3161695,0.9192777,7.929483,-6.09974,-56.5695
19.019237518,16.99956,-3.140985,-5.81609599999999,0.05253408,-0.3152696,0.9160293,7.929483,-6.09974,-56.5695
19.029096127,18.17976,-3.795583,-6.79694399999997,0.03797925,-0.3192709,0.9214741,7.929483,-6.09974,-56.5695
19.038954735,19.91901,-4.271655,-7.59388300000003,0.0410064,-0.3182423,0.9291069,7.929483,-6.09974,-56.5695
19.048812866,22.2173,-4.271655,-9.06515500000003,0.04781619,-0.3084281,0.934843,7.563451,-7.506656,-56.55311
19.058670998,25.63367,-4.093128,-10.59773,0.06197746,-0.3014745,0.9390126,7.563451,-7.506656,-56.55311
19.068529606,30.72718,-3.914601,-12.43682,0.06434765,-0.3039156,0.931291,7.563451,-7.506656,-56.55311
19.078388214,38.30532,-3.676566,-14.092,0.06313016,-0.2942279,0.9222854,7.563451,-7.506656,-56.55311
19.088246822,47.25001,-3.319512,-15.80848,0.05698695,-0.2904519,0.9056329,7.563451,-7.506656,-56.55311
19.098104954,56.31894,-4.807235,-17.52497,0.02911081,-0.3074316,0.8555709,7.562238,-7.88104,-56.99744
19.107963562,67.68615,-7.00906600000001,-16.42151,0.009293972,-0.359428,0.7916811,7.562238,-7.88104,-56.99744
19.11782217,80.3578,-8.13973500000002,-14.76633,0.03350751,-0.3586581,0.8100312,7.562238,-7.88104,-56.99744
19.127680779,91.0417300000002,-7.54464599999999,-15.56327,0.05831528,-0.2969607,0.8538054,7.562238,-7.88104,-56.99744
19.137539387,100.1728,-6.59250300000002,-18.68973,0.07128745,-0.2700586,0.8600772,7.562238,-7.88104,-56.99744
19.149861813,109.9871,-6.35446700000003,-19.36406,0.07083589,-0.2275764,0.9002157,7.198547,-9.717463,-56.97665
19.159720421,115.0185,-4.926253,-20.65142,0.06254007,-0.1896978,0.8992159,7.198547,-9.717463,-56.97665
19.169579029,119.1181,-5.045271,-19.79318,0.06579112,-0.1651704,0.9439422,7.198547,-9.717463,-56.97665
19.179437637,121.9133,-3.498039,-20.40621,0.07280464,-0.1285809,0.9522974,7.198547,-9.717463,-56.97665
19.189295769,121.7891,-3.260003,-20.95794,0.0879798,-0.1493022,0.9705951,7.198547,-9.717463,-56.97665
19.199154377,124.0253,-2.010315,-17.64757,0.09809405,-0.1706032,0.9760216,7.226614,-13.7555,-56.10299
19.209012985,129.3051,-0.701118900000002,-15.68588,0.08645615,-0.142849,1.008049,7.226614,-13.7555,-56.10299
19.218871594,135.8273,-5.283307,-18.99624,0.03043649,-0.1604201,0.8668559,7.226614,-13.7555,-56.10299
19.228730202,145.7037,-13.9121,-16.36021,-0.003847706,-0.2238515,0.7724069,7.226614,-13.7555,-56.10299
19.238587856,155.9529,-8.199244,-17.77018,0.03363939,-0.1693761,0.8068347,7.226614,-13.7555,-56.10299
19.248446465,159.7419,-9.984512,-15.25676,0.07771438,-0.04460989,0.8839314,7.275596,-19.92326,-53.92707
19.258305073,161.2327,-7.42562799999997,-16.72803,0.0945778,0.08848368,0.9102119,7.275596,-19.92326,-53.92707
19.268163681,154.3378,-4.926253,-14.88894,0.1001826,0.1685291,0.9611234,7.275596,-19.92326,-53.92707
19.278021813,139.927,-2.90295,-9.37167100000003,0.08775024,0.2401323,1.009346,7.275596,-19.92326,-53.92707
19.287880421,126.3857,-2.248351,-6.12261100000003,0.07281741,0.304728,1.011541,7.275596,-19.92326,-53.92707
19.297739029,113.714,-1.296208,-4.283521,0.06386341,0.3135309,1.044329,7.70663,-26.51324,-50.91649
19.307597637,104.3967,-1.17719,-2.812249,0.0487114,0.2894771,1.024215,7.70663,-26.51324,-50.91649
19.317455292,98.4335299999998,-4.866744,-2.015311,-0.000124203,0.2541332,0.9278148,7.70663,-26.51324,-50.91649
19.329778671,91.97347,-10.87715,-1.034463,0.01961337,0.2263909,0.8798586,7.70663,-26.51324,-50.91649
19.33963728,89.86153,-13.61456,-2.505734,0.04955883,0.2436379,0.866639,7.70663,-26.51324,-50.91649
19.349495888,91.97347,-13.198,-3.8544,0.08581311,0.2975437,0.8819116,7.756364,-32.3075,-48.36025
19.359354496,90.2342200000001,-11.59125,-3.609189,0.1011094,0.339703,0.9285317,7.756364,-32.3075,-48.36025
19.369212627,85.7618799999997,-9.80598499999999,-1.58619,0.09130166,0.3534151,0.9747903,7.756364,-32.3075,-48.36025
19.379071236,80.1714500000001,-8.91335200000002,0.8659304,0.08534253,0.3329673,0.9862034,7.756364,-32.3075,-48.36025
19.388929844,76.7550699999998,-9.270405,2.521111,0.06846488,0.3065211,0.9809496,7.756364,-32.3075,-48.36025
19.398788452,77.9352699999999,-11.65076,2.827626,0.05282248,0.2846334,0.8908984,7.427434,-36.68087,-45.43245
19.408646107,83.8362900000002,-12.95996,0.743324399999998,0.07906395,0.3232523,0.8759951,7.427434,-36.68087,-45.43245
19.418504715,89.4888300000001,-12.18634,-1.463584,0.1131418,0.4127187,0.906454,7.427434,-36.68087,-45.43245
19.428363323,88.9297900000001,-10.69862,-3.180068,0.09545546,0.4467171,0.930953,7.427434,-36.68087,-45.43245
19.438221932,82.40762,-11.41273,-1.340978,0.09521092,0.4492236,0.951104,7.427434,-36.68087,-45.43245
19.44808054,76.6308399999999,-12.24585,0.620718400000002,0.08914488,0.4399747,0.96453,6.701224,-38.8633,-44.12569
19.457938671,72.7175400000002,-12.12683,0.927233400000001,0.08613022,0.4516435,0.9689842,6.701224,-38.8633,-44.12569
19.467797279,69.4253900000002,-11.71027,0.682021400000003,0.0911735,0.4789355,0.9681843,6.701224,-38.8633,-44.12569
19.477655888,63.2137999999999,-12.84094,0.5594154,0.08617827,0.5129034,0.9546453,6.701224,-38.8633,-44.12569
19.487514496,56.07047,-13.79308,0.620718400000002,0.1137839,0.4883067,0.9482939,6.701224,-38.8633,-44.12569
19.499836922,51.53601,-12.72192,0.927233400000001,0.1407407,0.5128357,0.9375743,6.743681,-42.81147,-41.20422
19.50969553,49.36195,-10.52009,0.927233400000001,0.1435198,0.5183229,0.9668122,6.743681,-42.81147,-41.20422
19.519554138,46.25616,-8.91335200000002,2.337202,0.1389789,0.5130092,0.9879169,6.743681,-42.81147,-41.20422
19.529412747,41.84593,-7.12808399999997,3.440656,0.1281894,0.519253,0.9914777,6.743681,-42.81147,-41.20422
19.539271355,37.00089,-6.59250300000002,3.195444,0.1427574,0.5364403,0.9986031,6.743681,-42.81147,-41.20422
19.549129486,32.15585,-5.164289,2.888929,0.1539336,0.5443301,0.9999481,6.767691,-44.99719,-39.51723
19.558988094,27.49715,-3.260003,3.501959,0.1489876,0.5423184,0.9942512,6.767691,-44.99719,-39.51723
19.568846702,22.65211,-1.296208,3.256747,0.1398388,0.5383719,1.001536,6.767691,-44.99719,-39.51723
19.578705311,19.35996,-0.2250474,2.888929,0.1430887,0.5310291,0.98226,6.767691,-44.99719,-39.51723
19.588562965,16.50263,-0.2845563,2.521111,0.1316921,0.5323526,0.9728497,6.767691,-44.99719,-39.51723
19.598421574,13.95588,-0.1655384,2.827626,0.1358265,0.545009,0.9642719,6.412409,-46.07326,-37.77562
19.608280182,9.42141799999999,0.9056224,3.134141,0.1412092,0.5338279,0.9545168,6.412409,-46.07326,-37.77562
19.61813879,6.50197000000002,1.61973,3.440656,0.1380602,0.5166531,0.923748,6.412409,-46.07326,-37.77562
19.627997398,5.011188,1.917274,3.195444,0.1355554,0.5117323,0.9151166,6.412409,-46.07326,-37.77562
19.637856007,2.40232,2.393346,2.70502,0.1271172,0.5160179,0.9100018,6.412409,-46.07326,-37.77562
19.647714138,-0.2065488,2.869417,3.195444,0.1152019,0.5236757,0.9040067,6.044242,-47.17428,-37.82639
19.657572746,-2.194258,2.571872,2.766323,0.1208974,0.5207484,0.8885664,6.044242,-47.17428,-37.82639
19.667431354,-4.057736,2.988435,2.153293,0.1217569,0.5241408,0.8828323,6.044242,-47.17428,-37.82639
19.67975378,-7.90892299999997,2.512363,2.030687,0.1114346,0.5157359,0.871887,6.044242,-47.17428,-37.82639
19.689612389,-9.83451600000002,2.393346,1.540263,0.1118244,0.5059474,0.8559853,6.417972,-47.1786,-37.82832
19.699470997,-10.14509,2.512363,1.172445,0.1067949,0.4835415,0.8620974,6.417972,-47.1786,-37.82832
19.709329605,-10.76625,2.69089,1.601566,0.1101723,0.4830703,0.8582118,6.417972,-47.1786,-37.82832
19.719188213,-10.14509,3.464506,1.47896,0.10732,0.4728152,0.8552906,6.417972,-47.1786,-37.82832
19.729046345,-9.15124000000001,3.345489,1.295051,0.09754051,0.4785884,0.86075,6.417972,-47.1786,-37.82832
19.738904953,-8.34373400000002,3.226471,0.4368094,0.09856127,0.4722622,0.858286,6.417972,-47.1786,-37.82832
19.748763561,-7.84680700000002,3.226471,-0.5440385,0.0970645,0.4829819,0.8655857,6.043489,-47.54778,-38.2067
19.758622169,-8.71642900000001,2.928926,-0.5440385,0.0986495,0.4703345,0.8630604,6.043489,-47.54778,-38.2067
19.768480778,-9.64816799999999,3.047944,0.682021400000003,0.1022956,0.4494343,0.8609153,6.043489,-47.54778,-38.2067
19.778338432,-9.71028300000003,2.809908,0.743324399999998,0.1149773,0.4524657,0.8607602,6.043489,-47.54778,-38.2067
19.788197041,-9.896631,2.274328,-0.05361458,0.1229097,0.450124,0.8663778,6.043489,-47.54778,-38.2067
19.798055649,-10.08298,2.15531,-0.6666446,0.1242903,0.4574355,0.8664198,6.413203,-46.8158,-38.21617
19.807914257,-10.64202,1.976783,-1.157069,0.1224376,0.4701418,0.8852422,6.413203,-46.8158,-38.21617
19.817772388,-12.19492,1.857765,-1.340978,0.1308528,0.4765906,0.898115,6.413203,-46.8158,-38.21617
19.827630997,-13.56147,2.036292,-2.567038,0.1249975,0.4814252,0.9035105,6.413203,-46.8158,-38.21617
19.837489605,-15.79764,2.333837,-3.793097,0.1352477,0.4981094,0.9164436,6.413203,-46.8158,-38.21617
19.849812984,-19.1519,3.404998,-5.203066,0.1369202,0.4874398,0.9220801,6.408435,-46.453,-38.60403
19.859671593,-22.38193,3.643033,-5.87739899999999,0.1285053,0.4985673,0.9246899,6.408435,-46.453,-38.60403
19.869529247,-24.86657,3.107453,-7.83909500000001,0.1309063,0.5210345,0.9411381,6.408435,-46.453,-38.60403
19.879387856,-28.71775,2.928926,-10.90425,0.1310919,0.5487812,0.9432864,6.408435,-46.453,-38.60403
19.889246464,-33.12798,2.512363,-13.35637,0.1285058,0.5721545,0.9535838,6.033492,-46.82306,-39.04642
19.899105072,-38.40784,2.631382,-15.56327,0.127804,0.5741776,0.975654,6.033492,-46.82306,-39.04642
19.908963203,-44.61943,2.512363,-16.54412,0.1179632,0.5571219,0.9924223,6.033492,-46.82306,-39.04642
19.918821812,-50.02351,3.643033,-16.91194,0.1076377,0.5342045,1.004356,6.033492,-46.82306,-39.04642
19.92868042,-54.55797,3.583524,-16.91194,0.09971477,0.5000671,1.003222,6.033492,-46.82306,-39.04642
19.938539028,-57.7879999999998,3.82156,-18.138,0.1004446,0.4863345,0.9729066,6.764177,-45.37603,-40.28163
19.948397636,-61.08014,2.512363,-19.67057,0.09697229,0.4711554,0.9560559,6.764177,-45.37603,-40.28163
19.958255291,-64.6207500000002,0.5485688,-20.52881,0.08434022,0.4869087,0.9046154,6.764177,-45.37603,-40.28163
19.968113899,-69.6521399999998,-3.081476,-21.50966,0.06607711,0.5051193,0.8729231,6.764177,-45.37603,-40.28163
19.977972507,-77.1681699999998,-6.47348499999999,-21.87748,0.06082136,0.4924135,0.8709739,6.764177,-45.37603,-40.28163
19.987831116,-85.4917000000002,-6.94955700000003,-20.09969,0.07927162,0.4600977,0.9039822,6.764177,-45.37603,-40.28163
19.997689724,-92.8213799999997,-4.866744,-17.52497,0.1004102,0.4161552,0.9445212,7.107453,-43.2071,-42.86674
20.007547855,-100.3374,-2.248351,-14.64373,0.1202351,0.3834728,1.006259,7.107453,-43.2071,-42.86674
20.017406464,-107.108,1.322185,-12.069,0.1152013,0.3625305,1.013342,7.107453,-43.2071,-42.86674
20.029729843,-118.0404,2.452855,-9.98470000000001,0.09241904,0.324658,0.9596766,7.107453,-43.2071,-42.86674
20.039588451,-127.4199,0.965131299999997,-7.90039899999997,0.07236155,0.2901691,0.8935419,7.444751,-40.36769,-45.77883
20.049446106,-133.1346,-1.891297,-5.87739899999999,0.05745344,0.2246856,0.8548657,7.444751,-40.36769,-45.77883
20.059304714,-138.7872,-4.450181,-1.524887,0.05898824,0.1486896,0.8288049,7.444751,-40.36769,-45.77883
20.069163322,-138.6629,-2.783932,4.789322,0.07147025,0.1159408,0.8901674,7.444751,-40.36769,-45.77883
20.079021931,-136.8616,1.560221,7.48665400000003,0.08889449,0.1255902,0.9566091,7.444751,-40.36769,-45.77883
20.088880539,-139.6568,4.773703,10.3679,0.09774489,0.1140988,0.9856172,7.772468,-36.36871,-49.15095
20.09873867,-142.5141,7.39209699999998,14.84301,0.07911377,0.1051341,0.9747854,7.772468,-36.36871,-49.15095
20.108597279,-145.3714,8.34423899999999,18.88901,0.06531582,0.1054723,0.967797,7.772468,-36.36871,-49.15095
20.118455887,-148.5394,7.154061,19.25683,0.0252627,0.1082815,0.9032204,7.772468,-36.36871,-49.15095
20.128314495,-151.7694,5.071248,19.13422,0.03991184,0.03676973,0.8741354,7.772468,-36.36871,-49.15095
20.138173103,-153.5707,4.059596,20.78941,0.0562402,-0.03160411,0.8992024,8.461742,-30.22741,-52.61102
20.148030758,-152.8875,3.524015,23.54804,0.06799067,-0.0748143,0.8977119,8.461742,-30.22741,-52.61102
20.157889366,-147.6697,3.524015,24.7741,0.07829606,-0.08580811,0.9262242,8.461742,-30.22741,-52.61102
20.167747974,-141.0233,4.892721,24.28368,0.08742861,-0.1007719,0.9369893,8.461742,-30.22741,-52.61102
20.177606583,-133.0725,5.190266,23.05762,0.0850205,-0.1193353,0.9234494,8.461742,-30.22741,-52.61102
20.187465191,-127.9169,5.190266,21.27983,0.04448438,-0.1372522,0.9128543,7.288437,-22.87467,-54.345
20.199788094,-122.7612,2.750399,20.6668,0.05073694,-0.1810315,0.9023325,7.288437,-22.87467,-54.345
20.209646702,-118.2889,1.857765,21.27983,0.04377827,-0.229458,0.8517071,7.288437,-22.87467,-54.345
20.21950531,-113.6302,-0.939154599999998,23.67065,0.04323209,-0.2663135,0.8868646,7.288437,-22.87467,-54.345
20.229363918,-111.394,-2.367369,24.09977,0.07864773,-0.2620404,0.9046055,7.288437,-22.87467,-54.345
20.239221573,-108.4125,-1.77228,25.08061,0.1259675,-0.2380876,0.951574,7.244684,-17.06883,-56.06905
20.249080181,-109.3442,-1.355717,22.93501,0.09256818,-0.2029152,0.9370124,7.244684,-17.06883,-56.06905
20.258938789,-108.2261,-3.914601,22.56719,0.09028187,-0.2960074,0.9027154,7.244684,-17.06883,-56.06905
20.268797398,-102.7599,-5.402325,24.03846,0.0721271,-0.3302241,0.9046022,7.244684,-17.06883,-56.06905
20.278656006,-93.06984,-3.557548,18.88901,0.07738093,-0.3014073,0.9205841,7.244684,-17.06883,-56.06905
20.288514137,-82.3237800000001,-3.43853,13.73956,0.09431517,-0.3110736,0.898218,6.461128,-11.54957,-56.95393
20.298372746,-71.4535000000001,-5.164289,13.55565,0.06538044,-0.3761489,0.8717252,6.461128,-11.54957,-56.95393
20.308231354,-62.074,-7.00906600000001,13.31044,0.05701698,-0.4039298,0.8797563,6.461128,-11.54957,-56.95393
20.318089962,-50.64467,-5.81888699999998,13.86217,0.09694829,-0.4279026,0.8809018,6.461128,-11.54957,-56.95393
20.32794857,-38.96688,-4.093128,11.59396,0.08492751,-0.4124633,0.8740154,6.461128,-11.54957,-56.95393
20.337806225,-30.51912,-3.43853,9.632258,0.09223914,-0.3723712,0.9073142,6.059626,-6.452542,-57.00417
20.347664833,-27.16486,-3.43853,8.34489499999999,0.09659464,-0.3728339,0.9034147,6.059626,-6.452542,-57.00417
20.357523441,-24.24541,-3.021967,8.89662299999997,0.06677844,-0.3608856,0.9159205,6.059626,-6.452542,-57.00417
20.369846821,-22.31981,-5.223798,8.16098699999997,0.06804892,-0.3619052,0.9005594,6.059626,-6.452542,-57.00417
20.379705429,-22.50616,-5.81888699999998,9.01922900000002,0.08119435,-0.3583885,0.8989641,6.059626,-6.452542,-57.00417
20.389563561,-23.06521,-6.17594099999999,8.77401600000001,0.09493736,-0.3563013,0.904057,5.677865,-4.975636,-57.01731
20.399422169,-21.20173,-5.521342,9.14183399999998,0.08925531,-0.3792463,0.8977147,5.677865,-4.975636,-57.01731
20.409280777,-17.78535,-5.580852,9.14183399999998,0.08657921,-0.4153272,0.8849892,5.677865,-4.975636,-57.01731
20.419139385,-12.38127,-5.461833,8.28359300000002,0.08460904,-0.4202306,0.8797047,5.677865,-4.975636,-57.01731
20.42899704,-7.53622700000002,-5.164289,7.118836,0.07971667,-0.4212505,0.8788074,5.677865,-4.975636,-57.01731
20.438855648,-4.244083,-5.164289,6.62841199999998,0.08533285,-0.4460354,0.8742055,5.669833,-3.503045,-57.03239
20.448714256,-2.132142,-4.271655,6.44450299999999,0.1017912,-0.3990679,0.90264,5.669833,-3.503045,-57.03239
20.458572865,-2.00791,-3.795583,4.54411,0.1036983,-0.3542831,0.9025115,5.669833,-3.503045,-57.03239
20.468431473,-1.883678,-3.97411,3.195444,0.1030472,-0.3966741,0.8892247,5.669833,-3.503045,-57.03239
20.478289604,1.284233,-3.855092,2.398505,0.1045264,-0.3756641,0.908549,5.669833,-3.503045,-57.03239
20.488148213,3.023479,-3.676566,0.3755064,0.1041239,-0.3445323,0.9064214,5.293344,-3.504075,-57.41454
20.498006821,2.712899,-3.617057,-1.892705,0.101492,-0.377183,0.8999538,5.293344,-3.504075,-57.41454
20.507865429,4.762724,-3.081476,-2.260523,0.08409868,-0.3909474,0.9039192,5.293344,-3.504075,-57.41454
20.517724037,6.93678100000001,-3.379021,-3.057462,0.09080005,-0.3753054,0.9068308,5.293344,-3.504075,-57.41454
20.527581692,7.55793999999999,-3.914601,-2.444432,0.09722538,-0.3825537,0.9052405,5.293344,-3.504075,-57.41454
20.5374403,7.620056,-3.498039,-0.6053416,0.08965287,-0.4006149,0.9080712,4.913591,-2.395316,-57.42392
20.549763679,9.483534,-3.736075,0.007688423,0.08688872,-0.3787571,0.9039822,4.913591,-2.395316,-57.42392
20.559622288,9.54565000000002,-3.260003,0.1302944,0.09035374,-0.3684624,0.9159997,4.913591,-2.395316,-57.42392
20.569480896,9.60776600000003,-3.43853,1.111142,0.08654573,-0.3811608,0.9125924,4.913591,-2.395316,-57.42392
20.579339027,10.29104,-3.140985,1.111142,0.1011325,-0.3688505,0.9168012,4.913591,-2.395316,-57.42392
20.589197636,12.34087,-2.724423,-0.2988266,0.1090456,-0.3624097,0.9287228,4.546638,-3.121949,-57.03037
20.599056244,15.13608,-2.248351,-1.095766,0.09540143,-0.3810685,0.9163005,4.546638,-3.121949,-57.03037
20.608914852,18.55246,-2.069824,-1.463584,0.09734703,-0.3751957,0.9206352,4.546638,-3.121949,-57.03037
20.61877346,20.35382,-1.593753,-1.708796,0.0991127,-0.3547273,0.9246164,4.546638,-3.121949,-57.03037
20.628631115,19.91901,-2.188842,-2.321826,0.09100777,-0.3241176,0.9312198,4.546638,-3.121949,-57.03037
20.638489723,18.42822,-2.783932,-2.076613,0.08964016,-0.3358195,0.9282654,4.547894,-3.86359,-57.40691
20.648348331,15.44666,-3.081476,-1.095766,0.1009986,-0.3234836,0.9468964,4.547894,-3.86359,-57.40691
20.65820694,13.52107,-3.260003,-1.463584,0.1052369,-0.3239798,0.9343725,4.547894,-3.86359,-57.40691
20.668065548,11.71971,-3.260003,-1.218372,0.09831476,-0.3473611,0.9443371,4.547894,-3.86359,-57.40691
20.677923679,11.16066,-2.783932,-1.218372,0.103757,-0.3448548,0.9509895,4.547894,-3.86359,-57.40691
20.687782288,10.47739,-3.021967,-1.892705,0.09735194,-0.3371125,0.9545005,5.299367,-4.608518,-57.40323
20.697640896,9.66988199999998,-2.843441,-1.770099,0.1015074,-0.3575144,0.9542691,5.299367,-4.608518,-57.40323
20.707499504,8.42756399999998,-2.426878,-0.850553500000001,0.09741923,-0.3356287,0.9607417,5.299367,-4.608518,-57.40323
20.717358112,7.185245,-2.664914,-1.340978,0.1038891,-0.3180999,0.9483382,5.299367,-4.608518,-57.40323
20.729680538,5.94292600000003,-2.962458,-1.708796,0.105482,-0.3341627,0.9433879,5.299367,-4.608518,-57.40323
20.739539146,6.37773799999999,-2.664914,-1.524887,0.1060231,-0.3429316,0.9394726,4.930407,-4.967003,-57.01345
20.749397755,6.31562199999998,-2.30786,-2.076613,0.1021285,-0.3395433,0.9438695,4.930407,-4.967003,-57.01345
20.759256363,5.94292600000003,-1.950806,-2.137917,0.1048238,-0.3254271,0.938679,4.930407,-4.967003,-57.01345
20.769114494,5.508115,-2.129333,-2.567038,0.1087009,-0.3361438,0.9265533,4.930407,-4.967003,-57.01345
20.778973103,6.75043299999998,-2.367369,-2.750947,0.102352,-0.3474263,0.9174438,4.930407,-4.967003,-57.01345
20.788831711,9.85623000000002,-2.783932,-3.118764,0.1004924,-0.3610863,0.9125631,4.557932,-5.704328,-57.38805
20.798690319,14.88762,-3.081476,-3.977006,0.1017462,-0.3601578,0.8976978,4.557932,-5.704328,-57.38805
20.808548927,21.09921,-3.97411,-5.264369,0.1045074,-0.3455346,0.8977819,4.557932,-5.704328,-57.38805
20.818406582,28.92582,-5.045271,-7.53257999999997,0.1058517,-0.3406745,0.8930117,4.557932,-5.704328,-57.38805
20.82826519,37.00089,-7.12808399999997,-10.90425,0.08233973,-0.3560263,0.8774037,4.557932,-5.704328,-57.38805
20.838123798,46.4425,-8.85384299999998,-11.51728,0.08454311,-0.3823029,0.8723586,4.5627,-6.06713,-57.00021
20.847982407,54.02065,-7.723173,-12.069,0.07625852,-0.3673677,0.8519971,4.5627,-6.06713,-57.00021
20.857841015,59.5489599999999,-8.79433299999997,-10.35252,0.08314077,-0.353274,0.8309332,4.5627,-6.06713,-57.00021
20.867699146,61.0397500000001,-10.93666,-8.51342899999998,0.0947101,-0.3224606,0.8454043,4.5627,-6.06713,-57.00021
20.877557754,58.1824099999998,-11.41273,-7.164762,0.1188311,-0.2754707,0.8617499,4.5627,-6.06713,-57.00021
20.887416363,53.77218,-12.30536,-6.36782300000001,0.1250126,-0.2325012,0.8864636,4.574413,-8.214658,-56.97821
20.899739742,48.30598,-13.55505,-5.141763,0.1215619,-0.2071512,0.9068531,4.574413,-8.214658,-56.97821
20.909598351,45.44865,-14.80474,-4.038309,0.119153,-0.2255798,0.9292543,4.574413,-8.214658,-56.97821
20.919456005,45.01384,-14.80474,-4.957854,0.1136317,-0.2411555,0.9411815,4.574413,-8.214658,-56.97821
20.929314613,47.87117,-14.86425,-6.12261100000003,0.1137565,-0.2192849,0.9336971,4.574413,-8.214658,-56.97821
20.939173222,49.29984,-14.50719,-6.24521700000002,0.1249575,-0.1903942,0.9553453,3.463264,-10.04245,-56.95356
20.94903183,48.49233,-15.16179,-7.47127699999998,0.1174641,-0.148163,0.945266,3.463264,-10.04245,-56.95356
20.958890438,50.04523,-18.43478,-8.14561100000001,0.1009991,-0.1705031,0.8662443,3.463264,-10.04245,-56.95356
20.968748569,51.34966,-20.22005,-7.164762,0.1195471,-0.2034145,0.870015,3.463264,-10.04245,-56.95356
20.978607178,54.57969,-20.27956,-7.226065,0.1455373,-0.2132844,0.9016677,3.463264,-10.04245,-56.95356
20.988465786,59.5489599999999,-19.80349,-9.31036799999998,0.1367277,-0.1832287,0.8919837,2.73785,-12.96741,-56.08735
20.998324394,62.1578300000002,-17.66117,-10.90425,0.1445856,-0.1440924,0.9286211,2.73785,-12.96741,-56.08735
21.008183002,61.4745600000003,-16.64951,-10.22991,0.161522,-0.09942979,0.9900941,2.73785,-12.96741,-56.08735
21.018040657,57.5612500000002,-14.50719,-9.43297400000002,0.1783231,-0.05822334,1.038602,2.73785,-12.96741,-56.08735
21.027899265,51.59813,-13.9121,-9.86209499999999,0.1669839,-0.04467772,1.044149,2.73785,-12.96741,-56.08735
21.037757874,45.13807,-13.13849,-9.67818499999998,0.1657465,-0.05194845,1.054647,2.374161,-14.80383,-56.06657
21.047616482,40.78996,-12.06733,-9.31036799999998,0.1795474,-0.05033292,1.063569,2.374161,-14.80383,-56.06657
21.05747509,39.98245,-11.11518,-10.59773,0.1837468,-0.04205206,1.055912,2.374161,-14.80383,-56.06657
21.069797993,41.72169,-10.46058,-13.47897,0.1765223,-0.05868442,1.049645,2.374161,-14.80383,-56.06657
21.079656601,46.8152,-12.72192,-16.115,0.1559378,-0.06633598,1.00435,2.374161,-14.80383,-56.06657
21.089515209,53.71007,-15.81639,-17.64757,0.1492114,-0.1167843,0.9330984,2.024481,-18.10126,-55.19852
21.099373817,59.7974299999998,-16.29246,-17.03454,0.1582849,-0.1102829,0.9584215,2.024481,-18.10126,-55.19852
21.109232426,63.02745,-11.53174,-19.11885,0.1808544,-0.07979449,0.9899843,2.024481,-18.10126,-55.19852
21.11909008,65.2636300000002,-10.99616,-20.52881,0.1898572,-0.02120818,1.020061,2.024481,-18.10126,-55.19852
21.128948689,63.2137999999999,-9.62745900000001,-20.161,0.1905871,0.01729953,1.03571,2.024481,-18.10126,-55.19852
21.138807297,56.62952,-8.49678899999997,-18.2606,0.186703,0.04510219,1.062356,2.038158,-19.50092,-54.35189
21.148665905,47.9954,-7.96120899999999,-15.68588,0.1944628,0.06224029,1.072453,2.038158,-19.50092,-54.35189
21.158524513,40.41726,-6.89004799999999,-13.66288,0.2133554,0.0414977,1.076321,2.038158,-19.50092,-54.35189
21.168382645,34.88894,-4.807235,-11.88509,0.231928,0.01201096,1.084913,2.038158,-19.50092,-54.35189
21.178241253,31.84526,-2.486387,-10.72034,0.2383414,-0.01561108,1.100402,2.038158,-19.50092,-54.35189
21.188099861,34.57837,-1.058172,-11.27206,0.2275635,-0.0109638,1.06753,1.309525,-22.43212,-53.93378
21.197958469,38.49167,-0.3440652,-13.78549,0.2045673,-0.02519207,1.090739,1.309525,-22.43212,-53.93378
21.207817078,46.8152,-3.379021,-16.54412,0.1718605,-0.03367985,0.9809178,1.309525,-22.43212,-53.93378
21.217674732,57.06433,-3.43853,-18.62842,0.1763972,-0.02250864,0.9646546,1.309525,-22.43212,-53.93378
21.227533341,61.6608999999999,-3.081476,-20.83533,0.2014424,0.006545272,0.9971284,1.309525,-22.43212,-53.93378
21.237391949,66.0711400000002,-0.1060295,-21.38706,0.2199618,0.04086588,1.022072,1.327551,-24.62942,-53.07898
21.249715328,67.7482599999998,3.82156,-19.36406,0.2282175,0.07558638,1.048125,1.327551,-24.62942,-53.07898
21.259573937,66.1953700000001,5.84486400000001,-18.138,0.2182857,0.1057276,1.063855,1.327551,-24.62942,-53.07898
21.269432068,64.3940000000001,7.68964099999998,-17.46367,0.2230959,0.1301589,1.079327,1.327551,-24.62942,-53.07898
21.279290676,62.53053,10.07,-17.34106,0.2241075,0.1394534,1.089933,1.327551,-24.62942,-53.07898
21.289149284,61.3503200000001,11.97428,-18.138,0.2098677,0.1539593,1.098884,2.098267,-27.19727,-51.77617
21.299007893,60.4806999999997,10.90312,-21.08054,0.1866962,0.1175757,1.053863,2.098267,-27.19727,-51.77617
21.308866501,61.1018599999999,8.10620399999998,-22.3066,0.1595879,0.06002181,0.9526522,2.098267,-27.19727,-51.77617
21.318725109,65.38786,6.737498,-21.93878,0.1576527,0.06915177,0.926401,2.098267,-27.19727,-51.77617
21.328582764,73.2144600000001,5.90437299999999,-23.22615,0.1579337,0.1338957,0.9322146,2.098267,-27.19727,-51.77617
21.338441372,76.5066100000001,6.32093599999998,-24.51351,0.1624954,0.17925,0.9478666,2.872204,-30.44094,-50.53046
21.34829998,72.3448399999997,6.85651600000003,-22.91963,0.1692944,0.1949197,0.9579651,2.872204,-30.44094,-50.53046
21.358158588,66.3195999999999,6.49946299999999,-18.50582,0.1547616,0.2093421,0.9453556,2.872204,-30.44094,-50.53046
21.368017197,59.6731899999997,5.547319,-15.37936,0.1469212,0.220363,0.918246,2.872204,-30.44094,-50.53046
21.377875328,52.84044,4.357141,-14.0307,0.1375822,0.2626086,0.9163396,2.872204,-30.44094,-50.53046
21.387733936,44.70326,3.28598,-12.25291,0.1437368,0.2919001,0.9270415,3.267179,-32.63633,-49.22949
21.397592545,33.02547,2.452855,-10.53643,0.1480608,0.3138868,0.9405831,3.267179,-32.63633,-49.22949
21.407451153,19.54631,1.500712,-7.961701,0.1487605,0.3198099,0.9612287,3.267179,-32.63633,-49.22949
21.419774056,4.203681,1.381694,-4.46743,0.1611168,0.2937253,0.9833547,3.267179,-32.63633,-49.22949
21.429632187,-3.622924,1.798256,-1.157069,0.1691318,0.2515076,0.9958225,3.267179,-32.63633,-49.22949
21.439490795,-7.10141600000002,2.15531,1.049839,0.1635717,0.2100448,0.9821343,4.788115,-35.20746,-47.54647
21.449349403,-7.34987899999998,2.393346,2.153293,0.1542593,0.1967753,0.9692167,4.788115,-35.20746,-47.54647
21.459208012,-5.424286,2.214819,2.643717,0.1584047,0.1783235,0.9699603,4.788115,-35.20746,-47.54647
21.46906662,-2.132142,2.15531,2.827626,0.1601513,0.1816985,0.9575047,4.788115,-35.20746,-47.54647
21.478924751,1.222117,1.262676,1.601566,0.1622295,0.2016326,0.9480593,4.788115,-35.20746,-47.54647
21.48878336,2.650783,0.667586600000001,0.3142034,0.1645328,0.2196779,0.95345,4.78937,-35.9491,-47.92301
21.498641968,2.712899,0.4295509,0.007688423,0.1614465,0.2357203,0.9565045,4.78937,-35.9491,-47.92301
21.508500576,2.09174,0.310533,0.1915974,0.1495472,0.2497296,0.9572716,4.78937,-35.9491,-47.92301
21.518359184,0.1661467,0.1320062,0.3142034,0.1506268,0.2566023,0.9707317,4.78937,-35.9491,-47.92301
21.528216839,-2.629069,0.1915152,1.295051,0.1520167,0.2570814,0.9654448,4.78937,-35.9491,-47.92301
21.538075447,-5.300054,0.1320062,2.214596,0.149993,0.2511863,0.9553607,4.039904,-35.57232,-47.92291
21.547934055,-6.54237199999997,-0.998663500000001,2.214596,0.1385328,0.2578622,0.9459964,4.039904,-35.57232,-47.92291
21.557792663,-6.48025699999999,-1.236699,1.908081,0.1370221,0.2593016,0.9441133,4.039904,-35.57232,-47.92291
21.567651272,-6.977184,-0.760627799999999,1.785475,0.1481517,0.2541312,0.9664333,4.039904,-35.57232,-47.92291
21.577509403,-8.34373400000002,-0.2845563,2.09199,0.1557828,0.2293803,0.9661157,4.039904,-35.57232,-47.92291
21.587368011,-8.34373400000002,-0.3440652,2.275899,0.1538571,0.1976371,0.9404777,4.408403,-35.21473,-48.37671
21.599691391,-4.989474,-0.820136700000001,1.601566,0.145855,0.1882415,0.9194278,4.408403,-35.21473,-48.37671
21.609549999,-1.076172,-1.058172,0.4981124,0.1511021,0.2038742,0.9233185,4.408403,-35.21473,-48.37671
21.619408607,0.4767263,-0.760627799999999,0.5594154,0.1576369,0.2132569,0.9443893,4.408403,-35.21473,-48.37671
21.629266262,0.3524944,-0.1655384,1.049839,0.1612074,0.211376,0.9534273,4.408403,-35.21473,-48.37671
21.63912487,0.4146104,-0.2845563,1.172445,0.1551083,0.2185821,0.9430326,4.032667,-34.84226,-48.37855
21.648983478,0.4146104,-0.879645599999998,0.620718400000002,0.1514135,0.2243334,0.9282787,4.032667,-34.84226,-48.37855
21.658842087,0.1661467,-1.891297,0.4981124,0.1476108,0.2238421,0.9359959,4.032667,-34.84226,-48.37855
21.668700695,0.04191487,-1.593753,0.3142034,0.1552278,0.2244749,0.9569775,4.032667,-34.84226,-48.37855
21.678559303,0.1661467,-0.701118900000002,0.1915974,0.1651152,0.2211735,0.9616007,4.032667,-34.84226,-48.37855
21.688417435,0.663074000000001,-0.641609900000002,-0.1149176,0.1561726,0.2195917,0.950214,4.408403,-35.21473,-48.37671
21.698276043,0.725189899999998,-0.939154599999998,-0.05361458,0.1565288,0.2307873,0.9503034,4.408403,-35.21473,-48.37671
21.708134651,0.1661467,-0.820136700000001,-0.1762206,0.1575424,0.232759,0.9546185,4.408403,-35.21473,-48.37671
21.717993259,-0.4550124,-0.701118900000002,0.1915974,0.1568115,0.2196387,0.9612269,4.408403,-35.21473,-48.37671
21.727851868,-0.703476100000001,-0.879645599999998,0.1915974,0.1597401,0.211363,0.9534481,4.408403,-35.21473,-48.37671
21.737709522,-0.2065488,-0.641609900000002,-0.05361458,0.1692273,0.206618,0.9633361,4.033922,-35.5839,-48.75509
21.74756813,0.2282626,-0.2250474,0.1915974,0.1697005,0.2046649,0.9604375,4.033922,-35.5839,-48.75509
21.757426739,-0.2065488,-0.04652058,0.988536299999999,0.1589521,0.2079911,0.9644525,4.033922,-35.5839,-48.75509
21.769750118,-0.4550124,-0.701118900000002,0.927233400000001,0.1648154,0.2085293,0.9643735,4.033922,-35.5839,-48.75509
21.779608726,-0.765591999999998,-0.701118900000002,0.804627399999999,0.1727616,0.2066797,0.9714326,4.033922,-35.5839,-48.75509
21.789466858,-1.448867,-0.4035742,0.988536299999999,0.1752715,0.2106254,0.9795765,4.413172,-35.57753,-47.98886
21.799325466,-2.194258,-0.5225921,1.111142,0.1738904,0.2116135,0.9867926,4.413172,-35.57753,-47.98886
21.809184074,-3.312345,-0.5225921,1.233748,0.1729779,0.2033238,0.9843396,4.413172,-35.57753,-47.98886
21.819042683,-4.181968,-0.5225921,1.111142,0.1722022,0.1994671,0.9958189,4.413172,-35.57753,-47.98886
21.828901291,-4.678895,-0.1655384,1.356354,0.1761272,0.1990168,0.9962384,4.413172,-35.57753,-47.98886
21.838758945,-5.85909699999999,-0.1655384,1.969384,0.1748314,0.1961235,1.006296,4.034678,-35.21041,-48.37478
21.848617554,-8.03315400000002,-0.2845563,2.766323,0.1787954,0.1956843,1.00959,4.034678,-35.21041,-48.37478
21.858476162,-10.9526,-0.5225921,3.256747,0.1855848,0.1962163,1.005664,4.034678,-35.21041,-48.37478
21.86833477,-13.31301,0.370042,3.869777,0.1968839,0.203653,1.015629,4.034678,-35.21041,-48.37478
21.878193378,-16.66727,1.02464,4.482807,0.1985416,0.2134847,1.03821,4.034678,-35.21041,-48.37478
21.888051987,-20.02153,1.857765,4.728019,0.1931162,0.2222125,1.042674,4.406397,-34.84658,-48.38049
21.897910118,-23.93483,2.988435,5.83147299999998,0.1926287,0.2363672,1.05526,4.406397,-34.84658,-48.38049
21.907768726,-27.97236,4.178614,6.3832,0.1906884,0.2427015,1.06205,4.406397,-34.84658,-48.38049
21.917627335,-32.44471,5.547319,7.118836,0.1972808,0.2340362,1.071467,4.406397,-34.84658,-48.38049
21.927485943,-36.73071,7.09455200000001,7.91577499999999,0.1928805,0.2349743,1.072496,4.406397,-34.84658,-48.38049
21.937344551,-40.39555,8.28473000000001,8.09968399999998,0.1883218,0.2431907,1.068317,4.403635,-34.85192,-48.76457
21.949666977,-46.11021,9.593927,8.22229000000003,0.183357,0.2328738,1.053925,4.403635,-34.85192,-48.76457
21.959525585,-50.52044,10.84361,9.264441,0.1740676,0.217658,1.04099,4.403635,-34.85192,-48.76457
21.969384193,-53.93681,11.49821,9.69356200000002,0.1671161,0.2087799,1.02568,4.403635,-34.85192,-48.76457
21.979242802,-56.66991,11.97428,10.00008,0.1514087,0.2013026,1.015299,4.403635,-34.85192,-48.76457
21.98910141,-59.9620599999999,11.85527,10.91962,0.1403416,0.1836794,1.013391,4.384394,-33.02901,-50.0637
21.998960018,-62.6951600000001,12.62888,12.69741,0.1382093,0.1710532,1.025295,4.384394,-33.02901,-50.0637
22.00881815,-64.6207500000002,12.80741,14.04607,0.1271361,0.174775,1.005837,4.384394,-33.02901,-50.0637
22.018676758,-67.3538499999999,12.15281,13.67826,0.1132926,0.1794943,0.9993651,4.384394,-33.02901,-50.0637
22.028535366,-71.0808000000003,11.49821,13.18783,0.1256811,0.1742774,1.006333,4.384394,-33.02901,-50.0637
22.038393974,-76.0500800000001,11.67674,13.61695,0.1195406,0.1624309,0.9761305,4.360384,-30.84329,-51.75068
22.048252583,-81.0814700000002,10.78411,14.5978,0.1067226,0.1378787,0.947354,4.360384,-30.84329,-51.75068
22.058110237,-84.9326600000002,9.772454,15.39474,0.09481078,0.1347965,0.9321634,4.360384,-30.84329,-51.75068
22.067968845,-89.1565400000003,9.95097999999998,14.84301,0.1028184,0.1311466,0.9780216,4.360384,-30.84329,-51.75068
22.077827454,-94.0637,11.3792,14.90432,0.1190832,0.1109539,1.004934,4.360384,-30.84329,-51.75068
22.087686062,-97.4800700000001,12.27183,16.37559,0.1210118,0.09241063,0.9865402,3.958965,-27.97831,-53.44264
22.09754467,-101.2691,12.27183,18.27598,0.1042877,0.0293911,0.9603699,3.958965,-27.97831,-53.44264
22.107402802,-102.9463,11.02214,19.62465,0.07575416,-0.01240525,0.9120247,3.958965,-27.97831,-53.44264
22.119725704,-102.5736,8.34423899999999,19.80856,0.0672834,-0.05535176,0.8988446,3.958965,-27.97831,-53.44264
22.129584312,-99.6541300000002,8.04669499999999,20.48289,0.09031383,-0.0647665,0.9291056,3.958965,-27.97831,-53.44264
22.139442921,-98.8466200000001,8.87982000000001,20.48289,0.1041686,-0.0830177,0.9603813,4.301405,-23.95082,-54.76633
22.149301529,-98.7223900000003,8.522766,20.23768,0.1146555,-0.1044829,0.9212356,4.301405,-23.95082,-54.76633
22.159160137,-97.66642,8.82031100000003,21.21853,0.1177824,-0.1107491,0.9297637,4.301405,-23.95082,-54.76633
22.169018269,-97.2937200000001,8.403749,20.6668,0.09464942,-0.1344279,0.8987457,4.301405,-23.95082,-54.76633
22.178876877,-97.9769999999997,6.85651600000003,22.01546,0.08900799,-0.1948196,0.8983164,4.301405,-23.95082,-54.76633
22.188735485,-96.2377499999998,6.02339100000001,23.48674,0.1005811,-0.1956046,0.9211463,4.645061,-19.54895,-55.64568
22.198594093,-94.7469699999999,5.78535500000003,23.05762,0.1123925,-0.2285446,0.9331592,4.645061,-19.54895,-55.64568
22.208452702,-92.6971400000002,4.892721,22.56719,0.1108396,-0.2510404,0.9071147,4.645061,-19.54895,-55.64568
22.218310833,-89.0323000000001,4.654685,23.30283,0.104509,-0.241324,0.9178293,4.645061,-19.54895,-55.64568
22.228169441,-86.8582499999997,3.762051,21.83156,0.09631395,-0.2355044,0.931892,4.645061,-19.54895,-55.64568
22.23802805,-83.9388000000002,2.750399,20.42159,0.1006388,-0.2564813,0.9076933,4.614527,-14.46159,-56.08192
22.247886658,-82.1374399999999,2.036292,20.85071,0.09643035,-0.2881996,0.8940681,4.614527,-14.46159,-56.08192
22.257745266,-80.7087699999998,0.1915152,22.44459,0.1019322,-0.3104408,0.9191995,4.614527,-14.46159,-56.08192
22.267603874,-78.8453000000003,-0.879645599999998,22.44459,0.1154311,-0.3273288,0.9255734,4.614527,-14.46159,-56.08192
22.277461529,-76.4848900000002,-1.355717,21.83156,0.1091385,-0.3394366,0.9557505,4.614527,-14.46159,-56.08192
22.289784908,-73.5654400000002,-2.843441,21.34113,0.08437108,-0.3654819,0.9462997,4.581692,-10.06074,-57.34344
22.299643517,-70.5838800000003,-5.699869,21.89286,0.09790301,-0.3522256,0.9457395,4.581692,-10.06074,-57.34344
22.309502125,-68.0992399999998,-5.64036,21.03462,0.1115042,-0.3492023,0.9412584,4.581692,-10.06074,-57.34344
22.319360733,-66.9811600000003,-5.81888699999998,19.25683,0.1206118,-0.3467322,0.9296486,4.581692,-10.06074,-57.34344
22.329218388,-65.67672,-5.64036,18.52119,0.1281308,-0.3680975,0.92409,4.581692,-10.06074,-57.34344
22.339076996,-63.7511299999999,-5.93790500000001,19.56334,0.1234238,-0.4105639,0.9003179,4.185751,-6.06905,-57.44637
22.348935604,-60.2105200000002,-6.11643200000001,19.68595,0.1130729,-0.4373944,0.9069477,4.185751,-6.06905,-57.44637
22.358794212,-54.68221,-6.17594099999999,18.39859,0.1093629,-0.4287181,0.8936563,4.185751,-6.06905,-57.44637
22.368652821,-50.64467,-6.652012,16.37559,0.1108304,-0.415523,0.9052475,4.185751,-6.06905,-57.44637
22.378511429,-47.53888,-6.59250300000002,15.70126,0.1194558,-0.4301431,0.8791244,4.185751,-6.06905,-57.44637
22.38836956,-45.55117,-6.94955700000003,15.33344,0.1113658,-0.4156406,0.8726533,4.549398,-3.116603,-56.64629
22.398228169,-44.24673,-7.18759300000001,14.6591,0.1175184,-0.4224785,0.8514231,4.549398,-3.116603,-56.64629
22.408086777,-42.75595,-6.05692300000003,13.92347,0.1280444,-0.438915,0.8554472,4.549398,-3.116603,-56.64629
22.417945385,-38.90476,-5.223798,12.82001,0.1055845,-0.4483785,0.8504163,4.549398,-3.116603,-56.64629
22.427803993,-33.56279,-4.866744,11.10353,0.09463374,-0.4796389,0.8450373,4.549398,-3.116603,-56.64629
22.437662125,-27.84813,-5.10478,10.06138,0.1068594,-0.4892963,0.836156,3.781906,-0.5425196,-57.501
22.447520733,-23.12732,-4.866744,9.632258,0.09942504,-0.4635127,0.8518139,3.781906,-0.5425196,-57.501
22.457379341,-21.82289,-5.045271,8.89662299999997,0.1051294,-0.4473966,0.8537855,3.781906,-0.5425196,-57.501
22.469702244,-21.82289,-5.402325,8.40619900000001,0.1103524,-0.4478822,0.8417269,3.781906,-0.5425196,-57.501
22.479560852,-20.89115,-5.10478,7.91577499999999,0.1123796,-0.4527271,0.8426155,3.405333,1.688502,-56.24141
22.48941946,-19.89729,-5.223798,6.87362400000002,0.1093296,-0.481456,0.8448126,3.405333,1.688502,-56.24141
22.499277592,-16.72938,-5.223798,6.13798800000002,0.1041553,-0.5092736,0.8355468,3.405333,1.688502,-56.24141
22.5091362,-12.19492,-4.688217,4.421504,0.1085696,-0.5009315,0.8437006,3.405333,1.688502,-56.24141
22.518994808,-8.96489200000003,-4.450181,2.827626,0.113131,-0.5159823,0.842071,3.405333,1.688502,-56.24141
22.528853417,-5.67275,-3.855092,2.582414,0.114091,-0.5237905,0.833845,3.396088,2.786708,-56.70082
22.538712025,-3.250229,-3.081476,2.398505,0.1223351,-0.4924909,0.8560349,3.396088,2.786708,-56.70082
22.548569679,-2.753301,-3.498039,0.4368094,0.1129637,-0.4799012,0.8615458,3.396088,2.786708,-56.70082
22.558428287,-3.436576,-3.914601,0.1915974,0.1065385,-0.4682588,0.8670068,3.396088,2.786708,-56.70082
22.568286896,-5.36217,-4.747726,0.1302944,0.1043011,-0.4429685,0.8686898,3.396088,2.786708,-56.70082
22.578145504,-8.15738599999999,-5.461833,0.1915974,0.1118022,-0.4545743,0.8704017,3.396088,2.786708,-56.70082
22.588004112,-9.77240000000001,-5.699869,0.2529004,0.1210898,-0.4579116,0.8668868,3.020351,3.159172,-56.70266
22.59786272,-9.33758799999999,-5.283307,-0.3601296,0.1272326,-0.4836579,0.8641859,3.020351,3.159172,-56.70266
22.607720852,-6.10756099999998,-4.50969,-0.6053416,0.1186926,-0.5119774,0.8587975,3.020351,3.159172,-56.70266
22.61757946,-1.945794,-3.498039,-1.524887,0.111977,-0.5154176,0.8655729,3.020351,3.159172,-56.70266
22.627438068,1.594813,-3.081476,-1.831402,0.1140404,-0.517811,0.8712738,3.020351,3.159172,-56.70266
22.639761448,4.949072,-1.891297,-1.340978,0.1241761,-0.5079947,0.8697745,1.895147,3.908415,-56.70441
22.649620056,6.25350600000003,-1.355717,-1.218372,0.1171557,-0.4802754,0.8816093,1.895147,3.908415,-56.70441
22.659478664,7.24736100000001,-0.939154599999998,-2.015311,0.1182025,-0.4865941,0.8810619,1.895147,3.908415,-56.70441
22.669336319,9.66988199999998,-0.641609900000002,-2.444432,0.1108847,-0.5047178,0.8666372,1.895147,3.908415,-56.70441
22.679194927,12.0924,-0.641609900000002,-2.383129,0.1049903,-0.5042884,0.8652872,2.26687,4.272247,-56.71011
22.689053535,13.2726,-1.17719,-1.954008,0.1122341,-0.4964386,0.8652503,2.26687,4.272247,-56.71011
22.698912144,13.2726,-0.998663500000001,-2.015311,0.1218961,-0.4807635,0.8700368,2.26687,4.272247,-56.71011
22.708770752,13.08626,-1.058172,-2.260523,0.1173873,-0.4739976,0.8682414,2.26687,4.272247,-56.71011
22.718628883,12.52721,-1.236699,-2.444432,0.1187071,-0.4681679,0.8625214,2.26687,4.272247,-56.71011
22.728487492,12.21663,-1.653262,-2.567038,0.1138334,-0.4784589,0.8548368,1.899164,3.172121,-56.69686
22.7383461,13.39684,-2.069824,-2.444432,0.1135821,-0.4935304,0.859026,1.899164,3.172121,-56.69686
22.748204708,15.44666,-2.069824,-2.934855,0.1165947,-0.4978764,0.8608632,1.899164,3.172121,-56.69686
22.758063316,17.99341,-1.712771,-3.547885,0.1214285,-0.4924791,0.861319,1.899164,3.172121,-56.69686
22.767921925,20.04324,-1.534244,-4.46743,0.1177396,-0.4784263,0.8543023,1.899164,3.172121,-56.69686
22.777779579,21.53402,-1.77228,-4.835248,0.1118055,-0.4741024,0.8534649,2.647417,2.420955,-57.14128
22.787638187,22.27941,-2.129333,-4.773945,0.1287185,-0.4544812,0.8553062,2.647417,2.420955,-57.14128
22.797496796,23.70808,-1.950806,-5.570884,0.1354754,-0.4451704,0.8567261,2.647417,2.420955,-57.14128
22.807355404,26.06848,-1.831789,-6.73564099999998,0.1349603,-0.4451821,0.8548165,2.647417,2.420955,-57.14128
22.819678783,32.21796,-1.117681,-8.51342899999998,0.1320034,-0.4427732,0.8553582,2.647417,2.420955,-57.14128
22.829537392,38.74013,-1.415226,-10.65903,0.1403165,-0.4392829,0.8581444,2.277702,1.688977,-57.13181
22.839395523,47.12578,-1.534244,-14.0307,0.1310918,-0.4373924,0.8650006,2.277702,1.688977,-57.13181
22.849254131,57.25068,-1.593753,-18.50582,0.1215237,-0.468664,0.8533723,2.277702,1.688977,-57.13181
22.85911274,69.8602100000001,-2.248351,-21.20315,0.1109422,-0.484331,0.8529117,2.277702,1.688977,-57.13181
22.868971348,82.40762,-2.30786,-22.85833,0.1090015,-0.4527442,0.8460179,2.277702,1.688977,-57.13181
22.878829956,91.1038500000002,-3.319512,-23.10354,0.1157376,-0.392799,0.8545742,2.286947,0.5907707,-56.6724
22.888688564,94.4581099999999,-3.97411,-25.37175,0.1080998,-0.3340092,0.8484704,2.286947,0.5907707,-56.6724
22.898546219,93.71272,-6.89004799999999,-25.43305,0.122154,-0.329039,0.8430408,2.286947,0.5907707,-56.6724
22.908404827,91.6007799999999,-6.05692300000003,-24.51351,0.1264644,-0.2987564,0.8628821,2.286947,0.5907707,-56.6724
22.918263435,89.3024800000002,-6.05692300000003,-24.14569,0.1352574,-0.279641,0.8787318,2.286947,0.5907707,-56.6724
22.928122044,88.30863,-7.36611899999999,-24.207,0.122859,-0.263686,0.8804806,2.299829,-3.476672,-57.9112
22.937980652,85.9482300000002,-9.32991399999999,-24.08439,0.115597,-0.2705645,0.880047,2.299829,-3.476672,-57.9112
22.947838783,84.3332100000002,-11.11518,-23.53266,0.1156436,-0.3047271,0.853402,2.299829,-3.476672,-57.9112
22.957697392,85.9482300000002,-12.72192,-19.97709,0.1326815,-0.2966525,0.8901257,2.299829,-3.476672,-57.9112
22.967556,86.5693899999998,-11.35322,-19.60927,0.1406816,-0.2761635,0.8849134,2.299829,-3.476672,-57.9112
22.977414608,86.3209199999998,-12.72192,-19.05754,0.1381097,-0.2649918,0.8855235,1.205622,-7.8139,-57.4127
22.989737988,86.0724600000001,-10.81764,-18.138,0.167177,-0.2324547,0.928991,1.205622,-7.8139,-57.4127
22.999596596,84.7680199999998,-9.865495,-18.75103,0.1719125,-0.1753335,0.9677415,1.205622,-7.8139,-57.4127
23.00945425,84.9543700000003,-10.34157,-20.161,0.1594063,-0.1146275,0.9650777,1.205622,-7.8139,-57.4127
23.019312859,82.5939600000002,-12.72192,-21.50966,0.1564296,-0.1254063,0.95257,1.205622,-7.8139,-57.4127
23.029171467,80.4199099999998,-13.31701,-20.34491,0.1698302,-0.1333991,0.9954395,1.614193,-12.58721,-56.14935
23.039030075,79.7366300000002,-10.81764,-22.55181,0.1794265,-0.1478776,1.004765,1.614193,-12.58721,-56.14935
23.048888683,83.6499400000003,-10.69862,-24.63612,0.1900748,-0.1658791,0.9805008,1.614193,-12.58721,-56.14935
23.058747292,88.0601699999997,-9.62745900000001,-24.69742,0.1898335,-0.144466,0.9816434,1.614193,-12.58721,-56.14935
23.068605423,93.2157899999997,-9.50844099999999,-25.92348,0.1877991,-0.0972826,0.9815914,1.614193,-12.58721,-56.14935
23.078464031,96.8806299999998,-9.44893200000001,-27.21084,0.1770637,-0.05112392,0.9883635,1.638706,-15.88806,-55.21922
23.088322639,97.2533300000002,-9.09187900000003,-26.78172,0.1740095,-0.02677255,1.001072,1.638706,-15.88806,-55.21922
23.098181248,94.7065700000002,-8.615807,-25.67827,0.1821307,0.01376832,1.022383,1.638706,-15.88806,-55.21922
23.108039856,92.0976999999999,-7.36611899999999,-24.94263,0.1890806,0.05131613,1.026914,1.638706,-15.88806,-55.21922
23.117898464,87.81171,-5.99741399999999,-24.63612,0.191064,0.07379951,1.048639,1.638706,-15.88806,-55.21922
23.127756119,81.9728099999998,-4.5692,-24.207,0.1984587,0.0997567,1.075588,1.673212,-20.5957,-53.95456
23.137614727,74.7673600000001,-5.164289,-25.06524,0.1830771,0.1087017,1.031796,1.673212,-20.5957,-53.95456
23.147473335,68.3072999999999,-6.05692300000003,-24.88133,0.1853135,0.1081754,1.015946,1.673212,-20.5957,-53.95456
23.157331944,61.9093699999999,-7.96120899999999,-24.69742,0.1618632,0.1035822,1.014325,1.673212,-20.5957,-53.95456
23.169655323,57.3127899999999,-10.04402,-23.41006,0.1751839,0.07639058,0.9985712,1.673212,-20.5957,-53.95456
23.179513931,56.1947,-10.46058,-21.75488,0.1777825,0.06132075,0.9964902,1.332321,-24.99223,-52.69112
23.189372063,55.07662,-9.92500399999998,-20.83533,0.2019331,0.05914334,1.007628,1.332321,-24.99223,-52.69112
23.199230671,54.89027,-8.31826200000003,-19.18015,0.2221111,0.07351414,1.029026,1.332321,-24.99223,-52.69112
23.209089279,53.89642,-5.580852,-16.72803,0.2315633,0.09317047,1.057809,1.332321,-24.99223,-52.69112
23.218947887,49.85888,-2.90295,-13.47897,0.2377031,0.1045285,1.087528,1.332321,-24.99223,-52.69112
23.228806496,45.51077,-1.17719,-11.02685,0.2338576,0.1015839,1.089954,1.724537,-27.19295,-51.77423
23.238665104,43.15036,1.798256,-8.75863999999999,0.2357002,0.0914511,1.108531,1.724537,-27.19295,-51.77423
23.248522759,43.83364,3.28598,-6.91955000000002,0.2178292,0.1101266,1.070128,1.724537,-27.19295,-51.77423
23.258381367,48.67868,5.368793,-8.08430800000001,0.2048312,0.1342105,1.035056,1.724537,-27.19295,-51.77423
23.268239975,51.28754,5.487811,-9.80079199999999,0.2075145,0.1235589,1.043074,1.724537,-27.19295,-51.77423
23.278098583,55.32508,6.02339100000001,-10.78164,0.2163334,0.124482,1.008933,1.74658,-30.12655,-50.91189
23.287957192,58.86569,5.84486400000001,-12.13031,0.2036247,0.1077726,0.9950764,1.74658,-30.12655,-50.91189
23.2978158,62.28206,3.524015,-13.17246,0.1740659,0.09901839,0.9364823,1.74658,-30.12655,-50.91189
23.307673931,66.6922900000001,1.976783,-13.47897,0.1719421,0.1256707,0.911819,1.74658,-30.12655,-50.91189
23.317532539,69.73597,1.738747,-13.47897,0.176978,0.1915306,0.9444095,1.74658,-30.12655,-50.91189
23.327391148,67.9346100000003,1.976783,-13.17246,0.1791842,0.2490946,0.9774494,1.769001,-31.50927,-48.849
23.33971405,57.6233699999997,1.917274,-8.697337,0.1734937,0.2894815,0.9903305,1.769001,-31.50927,-48.849
23.349572659,46.4425,1.738747,-3.425279,0.185669,0.2983624,0.9940655,1.769001,-31.50927,-48.849
23.35943079,36.62819,3.166962,-1.524887,0.1826313,0.3157481,0.9659828,1.769001,-31.50927,-48.849
23.369289398,28.11831,3.226471,-0.3601296,0.1800836,0.3002094,0.9807432,1.769001,-31.50927,-48.849
23.379148007,20.47805,3.28598,1.601566,0.1748827,0.27629,0.9729482,3.28797,-34.82829,-47.99061
23.389006615,13.89376,1.500712,2.70502,0.1634288,0.2269568,0.9506519,3.28797,-34.82829,-47.99061
23.398865223,13.14837,1.322185,4.360201,0.1720072,0.2157409,0.9240791,3.28797,-34.82829,-47.99061
23.408723831,16.93744,1.976783,4.237596,0.180957,0.217813,0.9364282,3.28797,-34.82829,-47.99061
23.41858244,20.91286,2.750399,3.195444,0.1814571,0.2295378,0.9475415,3.28797,-34.82829,-47.99061
23.428440571,23.58385,3.166962,2.950232,0.1826403,0.2441166,0.9395013,2.928253,-36.28498,-47.14141
23.438299179,25.38521,3.464506,2.888929,0.1792022,0.2431058,0.9376251,2.928253,-36.28498,-47.14141
23.448157787,27.24869,3.881069,3.195444,0.1781359,0.249419,0.9367351,2.928253,-36.28498,-47.14141
23.458016396,29.73332,4.178614,3.011535,0.1739326,0.2683426,0.9321628,2.928253,-36.28498,-47.14141
23.467875004,28.98793,3.464506,2.521111,0.165309,0.3008924,0.9383107,2.928253,-36.28498,-47.14141
23.477733612,25.94425,3.28598,2.398505,0.1626308,0.3193572,0.9375463,3.311226,-37.3875,-46.68393
23.487591267,20.91286,2.214819,3.31805,0.1550986,0.3319307,0.9344054,3.311226,-37.3875,-46.68393
23.497449875,15.69513,1.322185,3.747171,0.151547,0.3333287,0.9263214,3.311226,-37.3875,-46.68393
23.509773255,12.27875,0.727095499999998,4.053687,0.1550281,0.3493515,0.9086766,3.311226,-37.3875,-46.68393
23.519631863,9.23507000000002,-0.1655384,3.93108,0.1599421,0.3474482,0.9085906,3.311226,-37.3875,-46.68393
23.529490471,5.508115,-0.5225921,3.379353,0.1611315,0.3450759,0.9219712,3.692945,-37.74838,-45.84991
23.539349079,3.334059,-0.1060295,3.685868,0.1638414,0.3261321,0.9246479,3.692945,-37.74838,-45.84991
23.54920721,2.899247,0.4890598,4.421504,0.165097,0.3027849,0.9244329,3.692945,-37.74838,-45.84991
23.559065819,3.023479,0.2510241,4.421504,0.1654779,0.2789704,0.9314145,3.692945,-37.74838,-45.84991
23.56892395,3.76887,0.4295509,3.992383,0.1681612,0.2683188,0.9394327,3.692945,-37.74838,-45.84991
23.578782558,5.88081099999999,0.1915152,3.256747,0.1679204,0.2770382,0.9294466,2.947496,-38.10789,-45.84228
23.588641167,7.30947700000003,-0.1060295,2.521111,0.1716807,0.2882584,0.9280502,2.947496,-38.10789,-45.84228
23.598499775,8.241216,0.1320062,1.662869,0.1828951,0.2956709,0.9317864,2.947496,-38.10789,-45.84228
23.608357906,7.80640399999998,-0.4630831,1.601566,0.1757551,0.3131033,0.9258057,2.947496,-38.10789,-45.84228
23.618216514,6.00504300000001,-1.17719,1.111142,0.1757385,0.3106574,0.9224309,2.947496,-38.10789,-45.84228
23.628075123,3.520406,-2.010315,1.356354,0.1786449,0.3179986,0.9267642,3.327999,-38.84316,-45.45259
23.637933731,0.787305800000002,-2.486387,1.111142,0.176357,0.3102104,0.9315231,3.327999,-38.84316,-45.45259
23.647792339,-1.200403,-2.783932,1.295051,0.1785121,0.2907552,0.9289322,3.327999,-38.84316,-45.45259
23.657650947,-1.759447,-3.319512,1.049839,0.187474,0.2835545,0.9340149,3.327999,-38.84316,-45.45259
23.667509079,-1.448867,-2.724423,0.804627399999999,0.189551,0.2728651,0.9334158,3.327999,-38.84316,-45.45259
23.677367687,-1.200403,-2.486387,1.846778,0.1871699,0.2723737,0.9377585,2.573767,-38.10358,-45.84035
23.68969059,0.2282626,-1.77228,1.601566,0.1969669,0.2739288,0.940028,2.573767,-38.10358,-45.84035
23.699549198,0.5388422,-1.117681,1.356354,0.1969251,0.2851461,0.9468321,2.573767,-38.10358,-45.84035
23.709407806,0.4146104,-0.5225921,1.724172,0.1901813,0.2846271,0.9541118,2.573767,-38.10358,-45.84035
23.719266415,0.5388422,-0.1655384,1.356354,0.1895123,0.2992183,0.9537652,2.573767,-38.10358,-45.84035
23.729124546,0.4767263,0.2510241,0.743324399999998,0.185588,0.295763,0.9499584,3.325239,-38.84851,-45.83667
23.738983154,0.4767263,0.5485688,0.620718400000002,0.1860648,0.300646,0.9533472,3.325239,-38.84851,-45.83667
23.748841762,-0.0823169599999999,0.965131299999997,0.682021400000003,0.1807087,0.2991409,0.9538901,3.325239,-38.84851,-45.83667
23.758700371,-0.3307806,1.203167,1.662869,0.1772892,0.2844651,0.9413558,3.325239,-38.84851,-45.83667
23.768558979,-0.3928965,1.143658,1.356354,0.1860538,0.2889255,0.9422269,3.325239,-38.84851,-45.83667
23.778417587,-0.1444329,1.441203,1.049839,0.1869505,0.3040459,0.9495297,3.325239,-38.84851,-45.83667
23.788276195,-1.386751,1.917274,1.172445,0.1850245,0.3025726,0.9505031,3.325239,-38.84851,-45.83667
23.79813385,-2.753301,1.738747,2.153293,0.1816688,0.2957267,0.9495348,3.325239,-38.84851,-45.83667
23.807992458,-3.37446,1.679239,1.785475,0.1885254,0.2933485,0.9479793,3.325239,-38.84851,-45.83667
23.817851067,-3.125997,2.095801,1.295051,0.1841279,0.2918463,0.947071,3.325239,-38.84851,-45.83667
23.827709675,-3.622924,2.512363,1.233748,0.1984772,0.2939713,0.9607811,2.573767,-38.10358,-45.84035
23.837568283,-4.119852,3.047944,0.988536299999999,0.1901324,0.2997482,0.963824,2.573767,-38.10358,-45.84035
23.847426891,-4.554663,3.404998,0.4368094,0.1975555,0.2969081,0.9675279,2.573767,-38.10358,-45.84035
23.859749794,-5.79698099999998,4.238123,0.3142034,0.1913434,0.2944527,0.9762213,2.573767,-38.10358,-45.84035
23.869608402,-7.16353100000001,4.357141,0.8659304,0.1933959,0.2891268,0.9785431,2.573767,-38.10358,-45.84035
23.87946701,-8.15738599999999,5.249775,0.743324399999998,0.1987028,0.2881769,0.9722298,2.578533,-38.46638,-45.4525
23.889325619,-8.71642900000001,5.725846,0.682021400000003,0.2017436,0.2809096,0.9735628,2.578533,-38.46638,-45.4525
23.899184227,-9.33758799999999,5.666337,0.927233400000001,0.1879428,0.2880822,0.9723824,2.578533,-38.46638,-45.4525
23.909042835,-10.45567,6.0829,0.3755064,0.19578,0.2959661,0.9800044,2.578533,-38.46638,-45.4525
23.91890049,-11.69799,6.79700699999999,-0.4214326,0.2039233,0.3121019,0.9814621,2.578533,-38.46638,-45.4525
23.928759098,-13.56147,7.39209699999998,-1.524887,0.1993713,0.3291082,0.9855041,2.946281,-38.48228,-46.28661
23.938617706,-16.54304,8.16571199999999,-2.996159,0.1999024,0.3354715,0.9941759,2.946281,-38.48228,-46.28661
23.948476315,-19.71095,8.64178400000002,-3.670491,0.1873922,0.3339536,1.008238,2.946281,-38.48228,-46.28661
23.958334923,-22.56828,8.998837,-3.793097,0.173704,0.3206528,0.9972994,2.946281,-38.48228,-46.28661
23.968193531,-24.36964,9.53441800000002,-4.099612,0.1691917,0.2909359,0.9990297,2.946281,-38.48228,-46.28661
23.978052139,-24.74234,9.53441800000002,-3.486583,0.1657216,0.2728281,0.9797583,3.314028,-38.49818,-47.12072
23.987910271,-24.68022,9.53441800000002,-3.425279,0.1640018,0.2693256,0.9581894,3.314028,-38.49818,-47.12072
23.997768879,-24.24541,9.17736400000001,-4.46743,0.1677627,0.2766401,0.9534054,3.314028,-38.49818,-47.12072
24.007627487,-24.86657,8.46325700000001,-5.203066,0.1628076,0.2902492,0.960779,3.314028,-38.49818,-47.12072
24.017486095,-26.85428,8.46325700000001,-5.93870199999998,0.1529738,0.2945423,0.9609553,3.314028,-38.49818,-47.12072
24.027344704,-29.89796,8.34423899999999,-6.18391400000002,0.1427081,0.306659,0.9722254,3.682949,-37.02367,-46.68964
24.039668083,-34.18395,7.74915000000002,-6.490429,0.1452706,0.2979259,0.9730737,3.682949,-37.02367,-46.68964
24.049525738,-38.6563,7.33258699999997,-6.12261100000003,0.1397972,0.2875991,0.9572509,3.682949,-37.02367,-46.68964
24.059384346,-41.63786,6.97553399999999,-5.69349,0.1408222,0.2710213,0.9460748,3.682949,-37.02367,-46.68964
24.069242954,-43.00441,6.32093599999998,-5.264369,0.1320537,0.2553307,0.9350458,3.682949,-37.02367,-46.68964
24.079101563,-42.69383,6.49946299999999,-5.203066,0.1300119,0.2460127,0.9206203,4.414427,-36.31917,-48.3654
24.088960171,-42.69383,5.96388199999997,-5.386975,0.1220536,0.2230945,0.9267699,4.414427,-36.31917,-48.3654
24.098818779,-41.63786,4.773703,-5.448278,0.1136775,0.2166568,0.9167717,4.414427,-36.31917,-48.3654
24.10867691,-40.83036,3.464506,-5.754793,0.1143127,0.2098676,0.9214974,4.414427,-36.31917,-48.3654
24.118535519,-40.51978,2.333837,-5.69349,0.1108028,0.2000484,0.9066094,4.414427,-36.31917,-48.3654
24.128394127,-40.76824,1.679239,-5.325672,0.1089498,0.1907843,0.9060784,4.396399,-34.12187,-49.22021
24.138252735,-41.0167,1.738747,-4.651339,0.109611,0.1927906,0.9204619,4.396399,-34.12187,-49.22021
24.148111343,-42.32114,1.798256,-4.222218,0.1159132,0.1778307,0.9389346,4.396399,-34.12187,-49.22021
